time,seconds_elapsed,z,y,x
1718292420959481900,0.01948193359375,0.03305062120854854,0.01645750606507063,-0.0025702888794243333
1718292421009252900,0.0692529296875,-0.026290625554323196,0.03996493064165115,-0.031246640526503323
1718292421059025000,0.11902490234375,0.345928822144866,-0.0009425415471196174,-0.015137217246741056
1718292421108796000,0.1687958984375,0.051314007651805875,-0.00738864894658327,-0.034976913096010684
1718292421158567200,0.218567138671875,-0.12544541178941726,0.1921587947554886,0.06262640591338277
1718292421208338200,0.268338134765625,-0.10229776043593883,-0.08165420085787772,-0.029546266349405048
1718292421258110200,0.318110107421875,0.039217911666631695,-0.03206657860726118,-0.11486717302128673
1718292421307881200,0.367881103515625,0.45205578548014164,0.027856413566321132,0.08095175167694688
1718292421357652200,0.41765234375,-0.3195294755190611,-0.11024974235370755,-0.1911763595893979
1718292421407423200,0.46742333984375,-0.10499532895684241,0.08518617437630892,0.025834990741312503
1718292421457194000,0.517194091796875,0.20637012932896612,0.08828224069550633,0.10232976300939917
1718292421506966000,0.566966064453125,0.005281739795207977,-0.17374986236169934,-0.1790463613346219
1718292421556737300,0.6167373046875,0.07130114914774895,0.061869303935766215,0.03247092162445187
1718292421606508300,0.66650830078125,0.17764321653842924,0.023688626362383364,0.010432838948071002
1718292421656279000,0.716279052734375,-0.37996670082509515,-0.039167350523173806,-0.10959858496859669
1718292421706051000,0.766051025390625,-0.09544774841070175,-0.017844576509296894,-0.15954013522341848
1718292421755822000,0.815822021484375,-0.2722048297643661,-0.3114838239684701,-0.5142088747933506
1718292421805593300,0.86559326171875,-0.6155827983826399,-0.30001462770998477,-0.5131732481352984
1718292421855364000,0.915364013671875,-0.5735708720833063,-0.14116349766403435,-0.45924905798509713
1718292421905135000,0.965135009765625,-0.2157791781872511,-0.2863841617643833,-0.5197695776604115
1718292421954907100,1.0149072265625,-0.9383931952685117,0.6663882719904184,-0.5458762980151921
1718292422004678100,1.06467822265625,0.7156365792840719,-0.012877601751685142,0.5488756990268826
1718292422054449200,1.11444921875,1.6411802298516034,0.4308011082664132,1.7135644980609417
1718292422104220200,1.16422021484375,0.6839753666073084,0.1305418581455946,-0.18616057725399732
1718292422153991200,1.2139912109375,0.42909284304380413,0.4816588965833187,0.5704080241382121
1718292422203763200,1.26376318359375,-0.12703472680747507,0.3751461488008499,1.0437808845438064
1718292422253534000,1.313533935546875,0.02053250041902065,-0.2738759778469801,0.44518648423254487
1718292422303305200,1.36330517578125,0.33335634081959725,-0.34337153887748717,-0.05282214719243347
1718292422353076200,1.413076171875,0.8784013756424188,-0.04873217446506023,0.4728296203743666
1718292422402847200,1.46284716796875,0.14937982960641383,-0.019265256962180136,-0.17701456324607132
1718292422452618200,1.5126181640625,0.03488017472326755,-0.14060703282505274,0.09323138753548264
1718292422502390300,1.562390380859375,-0.22517010686695574,-0.32921967940628527,0.2797696024628356
1718292422552161300,1.612161376953125,-1.5027818129867314,-0.079490300822258,0.368669792393595
1718292422601932300,1.661932373046875,-0.8710854996711015,0.04500292480885982,-0.24230595058500765
1718292422651703000,1.711703125,-0.15142799430787562,0.06523147384524346,-0.23719100045775993
1718292422701474300,1.761474365234375,0.6852046161413192,-0.23481530256867408,-0.8640625422317534
1718292422751246300,1.811246337890625,-0.2185276001125574,0.624075901439786,-0.15476093812286854
1718292422801017300,1.861017333984375,0.6422562857747077,0.3267240631982684,-0.8500061059590428
1718292422850788000,1.9107880859375,-0.2558668584257364,1.0162561871498823,0.28194311057701704
1718292422900559000,1.96055908203125,0.8615893570512533,0.12823328894227742,-0.3299638488370925
1718292422950330400,2.010330322265625,0.43525428828299045,0.6379530356228351,0.7053256862152367
1718292423000101000,2.06010107421875,1.1052087283223866,0.08962707943320274,-0.2858942593555897
1718292423049873200,2.109873046875,-0.25297756672501565,0.7783601619616151,1.2845643017366528
1718292423099644200,2.15964404296875,-0.15361995139420032,-0.10875818862169981,-0.31216596101373434
1718292423149414400,2.209414306640625,-0.6814911485761403,0.4305009562760591,0.3264534295633435
1718292423199185400,2.259185302734375,1.786908551213145,0.4572480934262275,0.1410159058868885
1718292423248956200,2.3089560546875,1.3021499350488186,0.9232736598089337,0.20755992363542317
1718292423298727200,2.35872705078125,1.394685010883212,-0.08911971443295479,-0.1462849323309958
1718292423348499200,2.408499267578125,-1.9018670557796955,-0.7878925449386238,-0.32995091629028317
1718292423398270500,2.4582705078125,-1.0454080473542213,-1.0490141090221703,-0.5080293824408203
1718292423448041200,2.508041259765625,-1.8516344136238096,0.1575057067863643,0.46543505314365025
1718292423497812200,2.557812255859375,0.20972470045387745,0.8293960833244025,0.6591076134629548
1718292423547583200,2.607583251953125,0.20534253984689713,1.3112522560454904,0.8469591394785791
1718292423597355300,2.657355224609375,1.0595821186572312,1.3469292802348731,0.6422273519411683
1718292423647126300,2.707126220703125,0.8360463349938392,0.6946672218177468,0.04415668324306607
1718292423696897300,2.756897216796875,1.1224673216372727,0.6046276891261338,-0.9383904187895357
1718292423746668300,2.806668212890625,1.1823030739188194,1.7342641717404126,-0.18714023594111204
1718292423796439300,2.856439208984375,-1.5386141738682984,-0.7499377120103686,-1.689861550912261
1718292423846210300,2.906210205078125,-0.03546761922240257,-0.6453118739530443,-0.5095078574955463
1718292423895982300,2.955982421875,-0.42227790233194823,0.8120834217347204,0.708048754503578
1718292423945753300,3.00575341796875,1.2937316507935523,2.2952741068057714,-0.09159048846065998
1718292423995524400,3.0555244140625,3.112728700184822,4.37227254243344,2.287950193658471
1718292424045295400,3.10529541015625,4.0811154671788215,3.5178701742768284,-1.1973702946692704
1718292424095066400,3.15506640625,3.767809980741143,3.852214941611886,-0.2960784573048353
1718292424144838000,3.204837890625,-2.3984511342942714,1.6570827323824167,-2.912880081579089
1718292424194610000,3.25460986328125,-4.905940735456348,0.21719956637918947,-1.2845575797349214
1718292424244381000,3.304380859375,-4.481976779733598,-0.19295009126365184,-2.4964339541405436
1718292424294152000,3.35415185546875,-1.4688757439926265,-1.6311632782280445,-3.7554941045254466
1718292424343923200,3.403923095703125,4.547986544474959,-8.485133685702085,-11.837033545577526
1718292424393694000,3.45369384765625,-1.2564549363225699,2.128250045567751,-7.869555563494562
1718292424443466000,3.503466064453125,4.318605541914701,-1.7637854497790335,-13.640814321136475
1718292424493237000,3.553237060546875,-6.339972837343812,8.18668674570024,10.611188267052173
1718292424543008000,3.603008056640625,1.8474352083683012,2.4259996509552,9.354186802762746
1718292424592779000,3.652779052734375,3.180336840033531,-2.7944851728230713,3.18994345729053
1718292424642551000,3.702551025390625,1.0773165127903221,-0.5232569813847542,0.7250152330040931
1718292424692322000,3.752322021484375,-0.4041834427148103,-2.207315983498096,-5.537212685880065
1718292424742093000,3.802093017578125,-0.9144972828309983,4.782150689658522,-1.0452934810638428
1718292424791863800,3.85186376953125,0.7108155888684093,3.8708623589366673,-4.41614821677804
1718292424841635000,3.901635009765625,-0.7549702262848615,-0.2437199090361595,-0.8548813838452101
1718292424891407000,3.951406982421875,-2.1018132895410058,-1.6572265247672795,1.6367109754830598
1718292424941178000,4.00117822265625,0.7497662279009819,1.8521178132265805,-2.835446713286638
1718292424990948900,4.050948974609375,-0.7577613913733512,-1.5440163251727819,-0.8125105611056089
1718292425040720000,4.100719970703125,-0.3437935636818409,-3.1193519177168607,0.32288930734097954
1718292425090491100,4.1504912109375,-2.3887562542319296,-4.5729210792452095,7.508040465161204
1718292425140262400,4.200262451171875,3.046575435319543,4.215737288114428,-8.266411439800262
1718292425190033400,4.250033447265625,-0.19267942109610883,5.934827856120467,0.21288579483330247
1718292425239804400,4.299804443359375,1.2154454650640487,3.0672452983826397,0.29794951187372204
1718292425289575700,4.34957568359375,0.6780085671573877,0.5140408247500657,-3.1677450694859024
1718292425339346400,4.399346435546875,-0.6259498786181211,-2.57163795594573,2.998207417991757
1718292425389118500,4.449118408203125,-1.0298509972602128,-0.33525837504863737,-0.2847688355222344
1718292425438889500,4.498889404296875,-0.43355683671534057,-0.35815059033632274,-0.2901099042892456
1718292425488660500,4.548660400390625,-0.0678828651368618,-1.2231243291288614,0.39071547385454175
1718292425538431500,4.598431396484375,0.030080720285978167,0.8782154976814984,-3.1497087697967885
1718292425588203500,4.64820361328125,-0.8818167370438575,1.8913520915061235,-2.301131308401376
1718292425637974500,4.697974609375,0.06451426548659801,0.23169337115585803,1.1937912671387194
1718292425687745500,4.74774560546875,0.3279494402747601,0.7408370715141296,-0.3823156020388007
1718292425737516300,4.797516357421875,-0.2243670468557626,1.6032815840899943,-0.041357407913357014
1718292425787288300,4.847288330078125,0.52669283758495,1.8312369377613067,2.3569158855959773
1718292425837059600,4.8970595703125,-0.2512678401976824,-4.943993694996833,-1.8846280439481138
1718292425886830600,4.94683056640625,-0.9912480026215315,-0.22374211989045142,-0.5595610514312982
1718292425936601300,4.996601318359375,-0.3795756191482767,-0.770517924028635,-0.5291315725065767
1718292425986372400,5.046372314453125,0.360846989813447,0.03504617893993854,-2.127756270701438
1718292426036144400,5.096144287109375,0.056647806427814064,2.2623779455065725,-2.4754811824828384
1718292426085915600,5.14591552734375,0.7504038682173937,0.13794716596603393,3.1672517330110073
1718292426135687200,5.195687255859375,0.5681699628878385,2.0078145708948374,2.6059979061871767
1718292426185459200,5.245459228515625,-1.3691823208361864,-3.271957723632455,-0.27429237662814554
1718292426235230000,5.29522998046875,0.7184048749536276,-0.01715980911552906,0.32079986078105865
1718292426285001000,5.3450009765625,-0.04070548334326595,0.053877720659971234,-3.412470356172323
1718292426334772200,5.394772216796875,0.11577917329967022,-1.2738602446317673,-1.4630907308503984
1718292426384543000,5.44454296875,-0.8210060022503137,3.528208612939715,-1.9787658788040279
1718292426434315000,5.49431494140625,-0.9619809185396879,-0.7594242830842733,1.0975003459021448
1718292426484086000,5.5440859375,0.17935586567521095,0.2329103457301855,2.5854756349012256
1718292426533857000,5.59385693359375,0.5261930348366498,0.09329846142232417,0.5075950096115469
1718292426583629000,5.643629150390625,0.2166981196630746,-2.6802760253190994,-3.403483332118392
1718292426633400000,5.693400146484375,0.5939437980264425,1.4535457806527614,-1.923783704033494
1718292426683171000,5.743171142578125,0.22577859415411947,-0.013092121285200119,-0.09151428141929209
1718292426732942000,5.792942138671875,-0.6496586709856986,-0.545225067564845,0.19312011406831442
1718292426782714000,5.842714111328125,-0.39907172572426497,-0.48826867011189456,-0.7980890178475528
1718292426832484900,5.89248486328125,-1.007002621114254,-0.20926760433614253,-1.1193711822528392
1718292426882256100,5.942256103515625,0.6248468858122825,0.7188374211519957,-0.14929142067059872
1718292426932028200,5.992028076171875,1.917351040637493,0.3010188363164663,0.8212422221589833
1718292426981799200,6.041799072265625,-1.194933422911167,-0.23055063086152075,-0.989126480422914
1718292427031570000,6.09156982421875,-0.3238612941782921,-0.07318214058876037,-1.605165790401399
1718292427081341000,6.1413408203125,0.06999057800583541,0.06827449480295181,-0.7877214261554181
1718292427131113200,6.19111328125,0.2714496274828911,-0.13796060996949672,0.029677491513639687
1718292427180884500,6.240884521484375,0.15996610555052757,-0.06612988398969173,-0.16234854370765386
1718292427230655200,6.2906552734375,0.01945581109821796,-0.17603461229801176,-1.1762217812437563
1718292427280427300,6.34042724609375,-0.2968547023743391,-0.09865151288807392,-1.1691520620532334
1718292427330198300,6.3901982421875,0.1683247320404276,-0.1824514936029911,-0.3585951922986656
1718292427379969300,6.43996923828125,0.25472062926637007,-0.07934066321849823,-0.2480255703408271
1718292427429741300,6.4897412109375,0.46648529284894463,0.2060275995016098,-1.1176464042868464
1718292427479512300,6.53951220703125,-0.3874403611740097,0.06602876170277595,-1.7323193212829529
1718292427529283300,6.589283447265625,0.4704798789104446,-0.03490355559885502,-1.5272032836683094
1718292427579055400,6.639055419921875,-0.09163608116805552,0.46200434804260726,-0.9365897991083562
1718292427628826400,6.688826416015625,0.2817354591757059,0.016203531304001807,0.38425157507006075
1718292427678597000,6.73859716796875,-1.1230723017930984,0.0712462040901184,-0.1747529384570196
1718292427728369200,6.788369140625,-1.2920429670542477,0.5553548319131135,0.7771040974859148
1718292427778140400,6.838140380859375,-1.0714368071019649,1.4722072265028954,1.4811859211198986
1718292427827911400,6.887911376953125,0.47353068131580944,0.5357692569553851,1.4162024306863545
1718292427877683500,6.937683349609375,-0.007094269109889865,0.15372750342190264,2.5991926100865004
1718292427927454200,6.9874541015625,-1.3947994310431182,-0.3910755393385887,1.3099554942332208
1718292427977225200,7.03722509765625,-0.5967774140171707,0.7218243280082941,0.06899988646805286
1718292428026997200,7.086997314453125,-1.707992835408449,2.278531792449951,1.1576292359113693
1718292428076768500,7.1367685546875,1.526277839386463,2.5791823799759146,1.266645198686421
1718292428126540500,7.18654052734375,0.27732692201845344,2.968291003155708,0.23149697180092332
1718292428176310800,7.236310791015625,2.7182787159770725,3.866379076042771,-2.711823256227374
1718292428226081500,7.28608154296875,3.098224374014139,2.588009245032072,-2.303926930469274
1718292428275853600,7.335853515625,3.8689948114991184,2.26863116068244,-3.423677394363284
1718292428325624800,7.385624755859375,3.3215292715311047,-0.5834837788105011,-3.107089232993126
1718292428375396600,7.435396728515625,2.7986662578999995,-0.42358547779917716,-3.077580814436078
1718292428425168000,7.48516796875,1.3690800295054912,0.48575376468151804,-1.9331524208813904
1718292428474938600,7.534938720703125,1.7404034051477908,0.11414485009610652,-1.0995119779855012
1718292428524710700,7.584710693359375,1.5994728394567965,-0.07168868716061115,-2.3263702329456803
1718292428574481700,7.634481689453125,1.039397993284464,-0.24676731390804052,-3.8222850827723738
1718292428624253700,7.684253662109375,0.011197083052527158,-1.2348384400591252,-3.208386291953921
1718292428674024700,7.734024658203125,0.03782908765673637,-0.7670774281859397,-4.067080512085557
1718292428723795700,7.783795654296875,-1.3567968865156173,1.193351706677675,-2.283856786864996
1718292428773567700,7.833567626953125,-0.7922422645807266,1.6672908226639032,-0.9377209950953721
1718292428823338800,7.8833388671875,-0.7506362887337803,2.1968571333259344,-0.4599117596775293
1718292428873110800,7.93311083984375,-0.5052539994433521,2.376180265775323,0.3961661404758692
1718292428922881500,7.982881591796875,-1.6236518796846269,1.462862475052476,0.6147381642520428
1718292428972652800,8.03265283203125,-1.9612945195212959,0.7134902149051428,-0.32860125524699685
1718292429022424600,8.082424560546874,-2.163968132419884,-0.26203473340570926,-0.4375198951274156
1718292429072195800,8.13219580078125,-1.9933143363773822,-0.1818073504805565,-0.49481005457937716
1718292429121967900,8.1819677734375,-0.1574421400308609,0.45865503761470316,0.0929118001922965
1718292429171738000,8.231738037109375,-0.5849433299690485,0.07696458173692226,0.225206931746006
1718292429221510100,8.28151025390625,0.286668239402771,0.12373802334964275,-0.19121201542466879
1718292429271281200,8.33128125,0.9418021269291639,0.07556465181112289,-0.33213848946243524
1718292429321052200,8.38105224609375,1.315521165536344,-0.2615238612741232,-0.9852164673723279
1718292429370824200,8.43082421875,0.4815010756731033,-0.21509704114198683,-1.1228905154854059
1718292429420595200,8.48059521484375,1.1470400373578071,0.5879723224014044,-0.4027100091613829
1718292429470367200,8.5303671875,0.43349253930747506,-0.3887485576957464,-0.33982129905000324
1718292429520138200,8.58013818359375,-1.4962038959011434,-0.07296469844579696,-0.5125881051911041
1718292429569910300,8.62991015625,-0.572551173646748,1.1988391981780528,0.025067641364317387
1718292429619681000,8.679680908203125,0.4398208655461669,1.2271756503462792,-0.5411291765533387
1718292429669453000,8.729453125,-0.6446890658795833,1.1002315244317054,-0.8919542463071644
1718292429719224300,8.779224365234375,0.9204095025494694,0.8780816421687603,0.06913483795933426
1718292429768995300,8.828995361328126,0.387361779512465,0.26314941664934155,0.03918105025496334
1718292429818767000,8.87876708984375,-0.6997837611138821,-0.5700023659467697,-0.11654095145240426
1718292429868538000,8.9285380859375,-0.1428838917158544,-0.1164332532942295,-0.05305288720838725
1718292429918310100,8.97831005859375,0.5217432158209383,-0.3883563435077667,-0.5804009372990578
1718292429968081200,9.0280810546875,0.3880404094263911,-0.20563772340118883,-0.589625715631619
1718292430017853200,9.077853271484376,0.9215784001983701,0.1906862379848957,-0.4984246648799628
1718292430067624200,9.127624267578126,0.9134617292381823,0.17556874835193156,-0.46987551980912684
1718292430117396200,9.177396240234375,0.49532165736332534,0.26930618571341036,-0.019191607204079628
1718292430167168300,9.227168212890625,-0.09870806538090109,0.19858663584589958,0.08253763262890279
1718292430216939300,9.276939208984375,0.3533643789730966,-0.13654314438700677,-0.49032801379449664
1718292430266711000,9.3267109375,0.4963584530651569,-0.4828922377705574,-0.8126108066096901
1718292430316482000,9.37648193359375,-0.5365606265287846,0.1782902822703123,-0.15309695043340324
1718292430366254000,9.426254150390625,0.05955576629638672,0.05662380449771881,-0.44348457568548616
1718292430416025000,9.476025146484375,0.28313655814528466,-0.027384266009926793,-0.6985115492209791
1718292430465797000,9.525797119140625,0.10321136814951896,0.04908464116454124,-0.41785124499611553
1718292430515568000,9.575568115234375,-0.12239077345915138,-0.06121814655065536,-0.031870690708979965
1718292430565340200,9.625340087890624,-0.024394436544179915,0.05886603046655654,-0.2424177403964102
1718292430615111200,9.675111083984374,-0.005284077882766723,-0.19064824406206607,-0.2907054590296
1718292430664883200,9.72488330078125,0.43615152938365936,-0.01764730037152767,-0.27090149208083747
1718292430714654200,9.774654296875,0.38685996747016904,-0.16877718851566315,-0.4856516194812953
1718292430764426000,9.824426025390625,0.31471243062615395,-0.10136603254377842,-0.40328824744075537
1718292430814197000,9.874197021484376,0.29671262702252715,0.057582420396804807,-0.24700455673001706
1718292430863968300,9.92396826171875,0.1849088601598516,0.10400397983193396,-0.3524805818758905
1718292430913740000,9.973739990234375,0.06629409810807556,-0.059494976019859314,-0.2703459770899266
1718292430963511000,10.023510986328125,0.2112941417276859,0.016572364616394043,-0.37981202172003686
1718292431013283000,10.073282958984375,0.4298457072377205,0.054609542065858836,-0.25463234819471836
1718292431063054000,10.12305419921875,0.6971148341655731,0.02815700394809246,-0.25048070840798314
1718292431112826000,10.172826171875,0.605227993106842,-0.42149815013110636,-0.9685614659737795
1718292431162596900,10.222596923828124,0.6310521701931953,0.04830255087614059,-0.27664273914657533
1718292431212369000,10.272368896484375,-0.22981997849941252,-0.12590659956037997,-0.3283133782163262
1718292431262140200,10.32214013671875,0.20612813726663587,0.22360884889960286,-0.1007954661142081
1718292431311912000,10.371911865234376,-0.20204992804229258,-0.1282891107827425,-0.5844787081319839
1718292431361683000,10.421682861328126,-0.047677660443447525,0.3290869929373264,-0.38120778692737217
1718292431411455000,10.471455078125,0.20883449188219383,0.5740279682010412,0.17283672957215457
1718292431461226000,10.52122607421875,0.18571139044808221,0.8738549643844365,0.2828273825982585
1718292431510998000,10.570998046875,0.840450122910738,-0.09265782543122768,-0.5333288780659436
1718292431560769000,10.62076904296875,-0.7253577628314495,-0.6081786596059798,-1.1919143673509358
1718292431610540000,10.6705400390625,-0.44124037695527074,0.17951193301975726,0.29672097472576425
1718292431660312000,10.72031201171875,0.6228303583581,0.24113339967429637,-0.18869130130801348
1718292431710083000,10.7700830078125,0.059362874072790145,0.21833470788896084,0.23320567541494963
1718292431759855000,10.819855224609375,0.27756365338377653,0.037350948750972744,0.21974910473152995
1718292431809625900,10.8696259765625,0.24384382767677307,-0.08413783436715602,-0.06972572565772571
1718292431859398000,10.91939794921875,0.17624620922207831,-0.263318343475461,0.1613961748862639
1718292431909169000,10.9691689453125,0.09404241165742278,-0.4310276104986667,-0.32628227424751965
1718292431958941000,11.01894091796875,-0.29778599187508226,-0.37692251082360745,-0.0027828904504887757
1718292432008712000,11.0687119140625,-0.019002660503238438,-0.04785422258675098,0.09239784105448051
1718292432058484000,11.11848388671875,0.034909839209169145,-0.006761749219894409,-0.17918719457741825
1718292432108255000,11.1682548828125,0.015550620353221892,-0.09732932437360287,0.1559354983275756
1718292432158026000,11.21802587890625,0.1739002306178212,0.21728490657508373,0.15238609875030815
1718292432207798000,11.267798095703125,0.07112257771044969,-0.23030279358029365,-0.021376202967856077
1718292432257568800,11.31756884765625,0.1353168174624443,-0.062278469258546826,-0.3149231142347678
1718292432307340800,11.3673408203125,-0.4116387271568179,-0.4469850580871105,-0.2777319591553882
1718292432357111800,11.41711181640625,-0.005377601385116577,-0.015216273832321166,0.3154043218804523
1718292432406883800,11.4668837890625,-0.2940817305296659,-0.3654676353514194,-0.09310808994937687
1718292432456655000,11.516655029296874,0.13013473864942787,-0.15829729555547237,0.1169490207966417
1718292432506427100,11.56642724609375,0.3165560126662254,-0.2299433126181364,0.2546485869434662
1718292432556198000,11.616197998046875,0.7099693473026156,0.14819032756090164,-0.12855773512367158
1718292432605969000,11.665968994140625,-0.323356632591784,-0.30058862820565696,-0.5214259665653109
1718292432655741000,11.715740966796876,-0.298822495315969,0.18506430644989014,0.014427297145407646
1718292432705512000,11.765511962890624,-1.0045677951827645,-0.026772856113314626,0.30288349767718464
1718292432755283700,11.81528369140625,-0.6603460692167282,-0.39760114171504973,0.2220224930236116
1718292432805055000,11.865054931640625,-1.8980124261781572,0.8844862485140561,0.7195613515123724
1718292432854827000,11.914826904296875,-0.4086407143846154,0.5129559521228074,-0.5528761303072794
1718292432904598000,11.964597900390626,0.7934450644992291,0.17283435495197771,-2.0700706821911035
1718292432954370000,12.0143701171875,0.43436873762011524,-0.8869400714069604,-1.1394310967240482
1718292433004140800,12.064140869140624,-0.5416062194805592,-0.2369283491998911,-0.01395429107248783
1718292433053911800,12.113911865234375,-0.6408639546334743,0.5473194094955921,0.4222064445309341
1718292433103683800,12.163683837890625,-0.4834195130476728,0.41977322603464123,-0.742863243579492
1718292433153454000,12.2134541015625,0.14764205516153014,0.2474099957257509,-0.045044645058736205
1718292433203226000,12.26322607421875,0.7658101847290992,0.24367490085065363,-0.8438453183069825
1718292433252997000,12.3129970703125,0.7116174067705869,-0.5514221686393023,-1.179961479228735
1718292433302769000,12.362768798828125,-0.39656127727329726,0.09230945038497447,-0.9300913769997656
1718292433352540000,12.412539794921875,0.05379464548639953,0.4781283843696117,-0.2616649137126282
1718292433402311200,12.462311279296875,0.13680968636870383,0.5168430226892232,-0.4521543139511719
1718292433452083200,12.512083251953126,0.05471585198454559,0.11437515172064304,-0.6105293874505907
1718292433501854000,12.56185400390625,0.24446342087984083,0.13860066143870353,-0.7175437280796468
1718292433551626000,12.6116259765625,0.8831167137265205,0.46957916721105575,-0.5474292996108532
1718292433601397000,12.66139697265625,1.3287526952922344,0.8585036659955978,0.19080281356927006
1718292433651169000,12.7111689453125,0.7143523846924305,-0.07175707622170448,-1.7680287864372133
1718292433700940000,12.76093994140625,0.7862627517797053,-0.27758067758381366,-1.4316590891458094
1718292433750711000,12.8107109375,-2.30037303737998,0.20738427480757235,0.21080104271480812
1718292433800483000,12.860483154296874,-1.5726502989828586,0.6816109755635261,1.0757171878349034
1718292433850254000,12.910254150390625,-1.4078981281995773,-0.051532618838548656,0.3120104781910777
1718292433900026000,12.960026123046875,-0.32084187329187985,-0.8553805655390023,-0.3939714799758047
1718292433949797000,13.009797119140625,0.09045622373372315,-1.0565122096925974,-0.8941326132595538
1718292433999568000,13.05956787109375,0.4349731332540512,-0.3925146322309971,-0.1671715068846941
1718292434049340000,13.10933984375,-0.2319254263460636,0.38365971012413497,1.1572225548066197
1718292434099111200,13.159111083984374,-0.01988616533949971,0.3319230931460857,0.508631622650288
1718292434148883500,13.208883544921875,0.2284872685909271,0.3522901738703251,0.37272575325351204
1718292434198654500,13.258654541015625,0.17462006932497023,0.07616554031372069,0.3490439584907144
1718292434248425200,13.30842529296875,-0.30450521712750195,-0.408926837849617,0.1781504719408229
1718292434298197200,13.358197265625,-0.24355668129846453,-0.5777624785542488,-0.19092545356824994
1718292434347968300,13.40796826171875,-0.7886264121711254,-0.2685240954250097,0.8349220802042633
1718292434397740300,13.457740234375,-0.3981237042844295,-0.4068482780098915,0.43123986500985917
1718292434447511600,13.507511474609375,-0.0015878537133336066,-0.40941199101805686,-0.19007716617584228
1718292434497282300,13.5572822265625,0.14578092833161352,-0.10379530551731586,-0.07677094059465453
1718292434547054300,13.607054443359376,-0.9114077193178236,-0.38843759205043316,0.12874054434467105
1718292434596825300,13.656825439453126,-1.6973402162298559,-0.2944394579261541,1.170820725917816
1718292434646596400,13.706596435546874,-0.2367854335978627,0.1664396854788065,-0.23174217873364686
1718292434696368400,13.756368408203125,-0.5386110562525689,1.3071487662494181,0.35789325457438825
1718292434746139400,13.806139404296875,-0.33379122510552406,0.47698505955338477,-0.7182774491816759
1718292434795911400,13.855911376953125,-0.37996260917186736,0.19518471844792365,-1.5047066435694694
1718292434845682400,13.905682373046876,-0.1549755307216197,-0.10084171640872955,-0.6600172756537794
1718292434895453400,13.955453369140624,-0.11777166229113936,0.218388483902812,-0.24369039068073034
1718292434945225200,14.00522509765625,-0.4612766913551837,-0.01989946321249008,-0.803015222203359
1718292434994996200,14.054996337890625,-0.3316238179385662,0.4197194500207901,-0.27282391151078045
1718292435044767500,14.104767578125,-0.05972410860061645,0.9687468324780464,0.3847149913307279
1718292435094539500,14.15453955078125,0.026401538582891224,0.030380525216460227,-1.025203536780551
1718292435144310300,14.204310302734376,0.25745281244292856,0.22590368183851242,-0.8104016061276197
1718292435194082300,14.254082275390624,-0.5401274521648883,-0.12428747392594813,0.09868665726669132
1718292435243853300,14.303853271484375,-0.45671968563795085,-0.2662655028432607,0.5388167348925024
1718292435293624300,14.353624267578125,-0.30759163883551954,-0.7749988688349724,-0.08769801106676459
1718292435343396400,14.403396240234375,0.15326514660716056,-0.6527396858662367,0.06590571984499692
1718292435393167400,14.45316748046875,-0.6188463302232324,-0.3066214786291122,-0.7707119852960109
1718292435442938400,14.5029384765625,-0.5911679035723209,0.5294850621193647,1.4399568157613276
1718292435492710400,14.55271044921875,-0.07762450695037841,0.4481126008123159,-0.41736236550062894
1718292435542481400,14.6024814453125,-0.48012628018856046,-0.0023088614642620083,-0.5031901257161051
1718292435592252200,14.652252197265625,0.09628361471295356,-0.3897755626559257,-0.36661227534189816
1718292435642024200,14.702024169921875,0.2795009781219065,-0.007027122157812118,-0.6676536157511175
1718292435691795500,14.75179541015625,-0.8895053918503224,0.1634288132250309,0.17936711772158742
1718292435741566500,14.80156640625,-0.36633864603228866,0.18907061948180198,0.2024969411574304
1718292435791338200,14.851338134765625,-0.11201675202623008,0.012595862200856208,-0.2886195196010172
1718292435841109200,14.901109130859375,-0.04073540355749428,-0.04053074783086776,-0.5158081266835332
1718292435890880300,14.95088037109375,0.2766203081190586,0.17987667467892168,-0.8829694142103195
1718292435940652300,15.00065234375,-0.013944281135126947,0.29540041191279887,-0.03144062872864306
1718292435990423300,15.05042333984375,-0.05624152718186378,-0.12658698303997515,0.2072394595094025
1718292436040194300,15.1001943359375,-0.09079963034391403,0.10336334384083748,0.07552059347368777
1718292436089966300,15.14996630859375,-0.15909867506623268,-0.11074001008868217,-0.3945217342697084
1718292436139737600,15.199737548828125,-0.9868868848025798,-0.661653644683957,-0.2502061292503029
1718292436189508400,15.24950830078125,-0.8305378007054328,0.28137480916976926,-0.07701017444431782
1718292436239280400,15.2992802734375,0.1431762987911701,1.655511537542939,0.8214352605130523
1718292436289051600,15.3490517578125,0.6731997055709361,0.7504197233736515,0.43827480514794587
1718292436338822700,15.39882275390625,-0.12298691272139549,-0.6537205135971308,-0.5158546692389995
1718292436388594700,15.4485947265625,-0.6193208158671856,-0.863897049471736,-0.32078020623251796
1718292436438365400,15.498365478515625,-0.10147307311482727,-0.17390519905388355,0.17578114899359643
1718292436488136400,15.548136474609375,0.2108019012313336,0.540398670321703,-0.18952800786048174
1718292436537907700,15.59790771484375,0.3420352487724274,0.23057342721521853,0.1047825629889965
1718292436587679700,15.6476796875,0.07372808403372764,0.14850363129377364,-0.1890849402680993
1718292436637450500,15.697450439453124,-0.38476745217032726,0.355085942068696,-0.2213786056295037
1718292436687221500,15.747221435546875,-0.062031801021099085,-0.11371639555096626,0.15231668677590787
1718292436736993500,15.79699365234375,-0.06873743613958358,-0.30055706402361393,0.7019484648671
1718292436786764500,15.8467646484375,-0.311573548078537,-0.33571722473204135,-0.5608434193920344
1718292436836535600,15.89653564453125,0.3908206877946853,-0.5609668265759945,-0.716057727305591
1718292436886306600,15.946306640625,0.7653039157073944,-1.0755886660844087,0.5557718882814049
1718292436936078600,15.99607861328125,-0.06431377447843552,-0.2828501424193382,-0.649892698937282
1718292436985849600,16.045849609375,-0.26852237839195875,0.35030163040161133,0.41015849853642283
1718292437035620400,16.095620361328123,-0.12655377489011735,-0.11367606354057788,-0.3935861339200288
1718292437085392400,16.145392333984375,-0.10899459119345992,0.25355975052714347,0.02081226720847189
1718292437135163600,16.19516357421875,-0.6699918494403362,-0.02813128498494625,-0.19988880448564886
1718292437184935400,16.244935302734376,-0.3970610069563612,0.052398880279064176,-0.2574750973399728
1718292437234706200,16.2947060546875,-0.19783959860457107,-0.013441665375232696,-0.14341500291787088
1718292437284478200,16.344478271484373,-0.4608475792229175,-0.00016717326045036316,-0.0584458322931081
1718292437334249200,16.394249267578125,0.2913023106778972,-0.3322510099261999,-0.5082260009914636
1718292437384020200,16.444020263671874,0.3494002976477146,0.023094459861516953,-0.21960933093465865
1718292437433791200,16.493791259765626,0.08108487653732299,0.15528642330169676,0.17672990108579395
1718292437483563300,16.543563232421874,-0.009447042781114579,0.025330840611457822,-0.22755597909018396
1718292437533334300,16.593334228515626,0.055363575303554534,0.014357026654481887,-0.26033969299085435
1718292437583105300,16.643105224609375,-0.2601227440382354,-0.018427052572369575,0.01999086782298982
1718292437632876000,16.6928759765625,-0.10554128153496421,-0.006420388436317443,-0.6277217836614698
1718292437682648000,16.74264794921875,0.06523965715169906,0.08760521821677685,-0.2526945119999349
1718292437732419300,16.79241943359375,-0.21395254728198052,0.20219488947093486,0.09214709943011402
1718292437782190300,16.8421904296875,0.13363690155148505,-0.30099954709410665,0.09452982984818517
1718292437831961000,16.891961181640625,0.44524318285584447,-0.22436755831241606,-0.4108300411224365
1718292437881733000,16.941733154296877,-0.19105916295051573,-0.01587912165522575,-0.2031990250121802
1718292437931504000,16.991504150390625,-0.1853390317380428,0.4264502195805311,-0.07639014284983277
1718292437981275400,17.041275390625,0.01746434502005577,0.01798983019888401,-0.33304018754251297
1718292438031046100,17.091046142578126,-0.07785131970988586,-0.31014146944880483,-0.021905103946477173
1718292438080818200,17.140818115234374,-0.3416974681854248,-0.2646247498989105,0.10530739058069884
1718292438130589200,17.190589111328126,0.4075789303719997,0.4618927043616771,0.18759828190691769
1718292438180359700,17.240359619140627,-0.20165194170065223,0.274823487830162,0.023645883199200034
1718292438230130700,17.290130615234375,-0.14386603462100028,-0.06553484070599079,0.018458105297759174
1718292438279901400,17.3399013671875,0.14220946305301038,-0.0339893633633852,-0.05954334520623088
1718292438329673500,17.389673583984376,0.08144147142264992,-0.031710312515497205,-0.1436249924067408
1718292438379444500,17.439444580078124,0.07310260907914488,0.0704582685828209,-0.08980930413231253
1718292438429215700,17.4892158203125,0.1393114400565624,-0.27838614874780176,-0.048508887103199956
1718292438478986500,17.538986572265625,0.03134323276877403,0.003236497703194618,-0.13337445122301578
1718292438528757500,17.588757568359377,0.1875450904149562,-0.1217225918740034,0.10950199272632598
1718292438578529500,17.638529541015625,0.04789221650958061,-0.14354454758167265,-0.023132015392929313
1718292438628300500,17.688300537109374,0.05924363160729408,0.20311960310041904,0.1250190030708909
1718292438678071600,17.738071533203126,-0.1320271282672882,0.20242986727058887,0.1409977857083082
1718292438727842600,17.787842529296874,-0.06322429874129593,-0.02165712053477764,0.17483678081557152
1718292438777614600,17.837614501953126,-0.18042203360199927,-0.23098726871311664,0.14545315768197178
1718292438827385600,17.887385498046875,-0.013848529143072663,0.1997884128510952,0.23863420326970516
1718292438877156600,17.937156494140623,0.17917700197696684,0.2626157481640577,0.18323555665276944
1718292438926927600,17.986927734375,-0.01963401720933616,-0.022093173864483832,-0.046243937845900654
1718292438976698600,18.03669873046875,-0.03444821304678917,-0.1466921979576349,0.1373779147107154
1718292439026469400,18.086469482421876,0.0030055384915322063,0.04992167651057243,0.09641527826860546
1718292439076241400,18.136241455078125,-0.0007213000118732452,0.20878362021148203,0.08588643160015344
1718292439126012700,18.1860126953125,-0.023735132385231554,0.07135843229293823,-0.007157251343503594
1718292439175783400,18.235783447265625,0.05557056911773979,-0.16865151630938052,-0.054788624959811565
1718292439225554400,18.285554443359374,-0.010294636053778231,-0.0494219102948904,-0.07266710373871028
1718292439275325400,18.335325439453126,0.10874679044485092,0.04622691364586353,-0.09473002859540283
1718292439325096400,18.385096435546874,-0.02939801698513329,-0.05432487990558147,-0.042467999503761525
1718292439374868500,18.434868408203126,-0.005478175682760775,0.09127601568400859,-0.09384323582351208
1718292439424639500,18.484639404296875,0.057636159878037864,-0.0999029742538929,-0.10935272044874728
1718292439474410500,18.534410400390627,-0.03441423771195114,0.04283142598867416,0.02159333458356559
1718292439524181200,18.58418115234375,-0.0671814388692379,0.0976414590626955,0.06099420160166919
1718292439573952500,18.633952392578124,-0.01738839370701462,0.04195698124170303,-0.0038726036496460436
1718292439623723500,18.6837236328125,0.021201777982711792,0.005229132825136184,-0.12106829268373548
1718292439673495600,18.73349560546875,0.05413140316009521,-0.06750467947423458,-0.14867328877225516
1718292439723266300,18.783266357421876,-0.0681049834549427,-0.021757073777914047,-0.06984415527246891
1718292439773037300,18.833037353515625,0.035971404026076195,0.051956981730461115,0.13749949526377023
1718292439822808600,18.88280859375,0.09892565365433692,0.01941197195649147,-0.0164445004530251
1718292439872579600,18.93257958984375,0.009369849359057844,0.2016483615040779,0.1261740913901478
1718292439922350300,18.982350341796874,-0.13273439975380896,0.046152679365873334,0.10563633027411996
1718292439972121600,19.03212158203125,-0.13402970026135444,-0.0335667540371418,-0.042424160362035036
1718292440021893400,19.081893310546874,0.06643785396032036,0.10284545744657515,-0.07024718311540783
1718292440071664600,19.13166455078125,-0.06846387989521026,-0.08362754675745963,-0.11359598404169081
1718292440121435400,19.181435302734375,0.0004465016584843397,-0.13412497732937334,-0.058758405373618004
1718292440171206700,19.23120654296875,0.02401566635966301,-0.0011456629037857055,-0.12002104865312575
1718292440220977700,19.280977783203124,-0.18521752425022422,-0.04374854083359241,-0.07059504670500755
1718292440270749000,19.3307490234375,-0.0040951603591442105,0.052126493078470226,-0.006077201021835207
1718292440320520000,19.38052001953125,-0.0465115758061409,-0.017992168286442754,-0.00045373511686921117
1718292440370290700,19.430290771484376,0.1106558389365673,0.06274900937974452,-0.015659122228994966
1718292440420062700,19.480062744140625,-0.03291559665203094,-0.04997136087119579,-0.06816986538469791
1718292440469833700,19.529833740234373,0.0012977116603404282,0.1030792662024498,0.003704772802069783
1718292440519605000,19.57960498046875,-0.000617328180745244,-0.09202712631225586,-0.0858868699915707
1718292440569375700,19.629375732421874,-0.0002501023035496473,0.13018997596800327,0.0951632323808968
1718292440619146800,19.679146728515626,0.04191379968710243,-0.0011877484798431396,0.061808659789711236
1718292440668918000,19.72891796875,-0.04188333148360252,0.04293722445070743,0.08657594823427497
1718292440718688800,19.778688720703126,0.05367540302090346,0.10179448708891868,0.07806552871614694
1718292440768459800,19.828459716796875,0.08241765951104461,-0.06601531769931315,-0.035337636167183516
1718292440818230800,19.878230712890623,0.013899857471510768,0.0929839886456728,0.05720109292902052
1718292440868001800,19.928001708984375,-0.002194368239119649,-0.05036240601539611,-0.004339417443796992
1718292440917773800,19.97777392578125,0.050063057742640374,-0.0023918635725975034,0.044858182575926185
1718292440967544800,20.027544921875,-0.012777648508548735,0.01686228747367859,-0.016912410225719213
1718292441017315800,20.07731591796875,-0.0008825549881905317,0.006287117445468902,-0.01719005812332034
1718292441067086600,20.127086669921876,0.0023472937785089013,0.013941431590914726,0.052212198600545524
1718292441116857900,20.17685791015625,0.06848726077079773,-0.06536591387987137,-0.06464227578043938
1718292441166628600,20.226628662109373,-0.04166114010028541,-0.08678104235231876,0.0009676759883761406
1718292441216399600,20.276399658203125,0.10956278300285338,0.08574468504190444,0.022872999130561948
1718292441266170600,20.326170654296874,-0.06411277201361953,-0.04419102390408516,-0.023834245378151535
1718292441315941600,20.375941650390626,0.06366144804954528,0.1032528692036867,0.04092464251928031
1718292441365712600,20.425712646484374,0.02309789392761886,-0.05836743329465389,-0.029085297774150965
1718292441415483600,20.475483642578126,-0.005834843633323907,0.06334580622911452,0.02018171421997249
1718292441465254700,20.525254638671875,-0.040457098072767254,0.009725275200605392,-0.01629888143725693
1718292441515025700,20.575025634765623,-0.044989407740160824,-0.018989362630248068,0.006124328099191188
1718292441564796700,20.624796630859375,-0.12723514475040137,0.012914426630735396,0.017082944487035272
1718292441614568700,20.674568603515624,-0.18566753304004668,-0.05149228682816028,0.07309709265381098
1718292441664339700,20.724339599609376,0.03832819628529251,0.05486147100031376,-0.04855396835394203
1718292441714110700,20.77411083984375,-0.1315863256972283,0.023283260431885718,0.04191350742615759
1718292441763881700,20.8238818359375,-0.02934760197214782,-0.004866144731640816,0.021613354458287357
1718292441813652700,20.87365283203125,-0.046471937915496524,-0.03700608083605766,-0.15725268187336622
1718292441863423500,20.923423583984373,-0.011201777493953704,-0.008037760505080222,0.10418839648813008
1718292441913194800,20.97319482421875,0.20204349830150603,-0.13880115244686603,-0.1550476461097598
1718292441962965800,21.0229658203125,0.5597568662643432,-0.10403145236074923,-0.238257771172747
1718292442012736800,21.07273681640625,0.5528478540608659,0.1644739383637905,0.002195537282899022
1718292442062507500,21.122507568359374,0.1366366313567385,0.262203075709939,0.3232064104661345
1718292442112278800,21.17227880859375,-0.10829552127970382,-0.1496428644567728,0.3968505425434559
1718292442162049500,21.222049560546875,0.3767243579030037,0.03363455857634544,-0.13003544299341738
1718292442211820500,21.271820556640623,0.5002022690117359,0.3521551493138075,-0.1550997416231781
1718292442261591600,21.321591552734375,0.363176309543848,0.09272504544854164,-0.17851678450256586
1718292442311362600,21.371362548828124,0.4028174150586128,-0.26762626980245113,-0.2739857218317687
1718292442361133600,21.421133544921876,0.18805296687185763,-0.3912713541716337,-0.4242489832092076
1718292442410904600,21.470904541015624,0.2161222925364971,0.4291998105496168,0.23491664405129847
1718292442460675600,21.520675537109376,-0.10537115826560184,0.5227005165457725,0.13867321521826087
1718292442510446600,21.570446533203125,0.19001286876797674,0.07044365553557873,-0.3251272224608809
1718292442560217600,21.620217529296873,0.21051263596117495,-0.35996786889135834,-0.4239320262145251
1718292442609988400,21.66998828125,-0.10456336728036403,-0.07452186475992202,-0.4760653874251991
1718292442659759600,21.719759521484374,-0.04254793287217617,0.028238252490758894,-0.3634278000868857
1718292442709530600,21.769530517578126,-0.1711024896580726,-0.07658931868374347,0.2911672313224524
1718292442759301600,21.819301513671874,0.13113047168850897,-0.49113633450269695,-0.17365275866277516
1718292442809072400,21.869072265625,0.5084550605069845,-0.10804477965533733,-1.0070215450104325
1718292442858843600,21.91884375,0.2653630010455847,0.20175474448800085,0.28439715266563
1718292442908614700,21.96861474609375,-0.04730769461989402,0.31832009972929953,-0.24612507048174737
1718292442958385400,22.018385498046875,0.16455642901547252,0.03180558958351612,-0.31902649443298575
1718292443008156400,22.068156494140624,0.28315350928008554,-0.04011398372352123,-0.8298150393888354
1718292443057927700,22.117927734375,0.3107086018122732,0.1471422798126936,-0.22284422120265662
1718292443107698400,22.167698486328124,-0.03726750825121999,0.039344168394804,-0.20311894551329313
1718292443157470200,22.21747021484375,0.17740422015078364,0.0005687397986650467,-0.41747137883305546
1718292443207241200,22.2672412109375,0.6518903755605221,0.020218612164258954,-0.17937928308341652
1718292443257012200,22.31701220703125,1.0633289039701224,0.11776011798381805,0.21545429361443966
1718292443306783200,22.366783203125,1.1475177378721535,0.31141397360265255,0.08139291957318782
1718292443356554200,22.41655419921875,1.4863415503174067,-0.19756255349516869,-0.5853517646394669
1718292443406325200,22.4663251953125,1.2955109354257583,0.0460626629948616,-0.9063133918534964
1718292443456096300,22.51609619140625,-0.4012065823284909,-0.06782792007923126,-1.0901911919325589
1718292443505867300,22.5658671875,-0.28575178214497865,0.6453057364732027,-0.1456627453120425
1718292443555638300,22.61563818359375,0.8096738763749599,0.7170341711223125,0.4471674289166927
1718292443605409000,22.665408935546875,1.9216426003515719,0.20779753178358076,-0.42794023894257843
1718292443655180300,22.71518017578125,0.913086320054531,0.5453571695119143,-1.608634927816689
1718292443704951300,22.764951416015624,0.5529515701636671,0.9476081828594207,-1.398965172420442
1718292443754722000,22.81472216796875,-0.012518120789527892,1.777589518725872,-0.7564364263799042
1718292443804492300,22.8644921875,-0.9165209706783294,2.116070947474241,-0.26326471359208226
1718292443854263300,22.91426318359375,-0.5085100786298513,0.38245208790004254,0.1505914704184979
1718292443904034000,22.964033935546876,-1.7393518502682446,1.1697627412974834,-0.022065116813778877
1718292443953805300,23.013805419921876,-1.2952566684037445,0.09022679889202118,0.718799427229166
1718292444003576300,23.063576416015625,-0.12080606155097484,0.14724924731850622,0.11067425137609242
1718292444053347000,23.11334716796875,-0.2920265515655279,-0.06815525233745574,-0.5555766579702496
1718292444103118000,23.1631181640625,0.3479237953543663,0.06359013637900351,-0.5111006796449422
1718292444152888800,23.212888916015626,0.6389426311820745,-1.031159741771221,-0.8337991405889391
1718292444202659600,23.26265966796875,0.9655418989568948,-0.764284874857962,-2.0352239713460207
1718292444252430600,23.3124306640625,1.3288310212254524,0.39906712261438365,-2.556557291191816
1718292444302201900,23.362201904296874,0.15854922448992728,0.507093197569251,-1.7681126653283834
1718292444351972600,23.41197265625,-1.0121171876490116,-0.29967808923199774,-1.639703727558255
1718292444401743600,23.46174365234375,-2.365056814214587,-0.41645796400681134,-0.9371358886837958
1718292444451514600,23.5115146484375,-2.148045463883877,-1.4496122405961156,-1.0502934813082219
1718292444501284600,23.56128466796875,-0.9321119230419397,0.18598989686220882,-1.2445254290759562
1718292444551055600,23.6110556640625,-0.20703414619565008,0.04665186105966568,-0.793097420105338
1718292444600826600,23.66082666015625,0.5495137046694756,-0.849748989392817,-1.2002873511597514
1718292444650597600,23.71059765625,3.291019566977024,2.967207884094119,-0.6964791666105389
1718292444700368600,23.76036865234375,-1.6841373280465601,1.1075806450854986,-0.8489926180675625
1718292444750139600,23.8101396484375,-0.9781769241243601,0.4260319941684603,1.1213649133533239
1718292444799910700,23.85991064453125,-1.1459142481982707,0.5930646040391176,1.1273837352514267
1718292444849681700,23.909681640625,-1.6535481285154818,-0.44943102646712213,0.08052841169834137
1718292444899452700,23.95945263671875,-1.3625439057350157,0.08840988566316664,0.516979508550465
1718292444949223700,24.0092236328125,-0.5645294874936342,-1.375625359495729,-0.4164920124068856
1718292444998993700,24.05899365234375,-0.010751695638895034,-0.44997196494340896,-0.30964784071296453
1718292445048764700,24.1087646484375,-1.3740613250494003,0.17039127264879642,0.08857757038027048
1718292445098535700,24.15853564453125,-1.2333142992317676,0.26008491451218724,0.3566568446472287
1718292445148306700,24.208306640625,0.0558791236102581,-0.6627363253541291,1.9576269369244574
1718292445198077700,24.25807763671875,-0.9284569076657294,-1.023332409146428,0.8024404179900884
1718292445247848700,24.3078486328125,0.18149404674768446,-1.2281290055483578,0.05149667074233293
1718292445297619700,24.35761962890625,-0.8667126914143561,-0.06476268728971481,-0.6696000736437737
1718292445347390700,24.407390625,-1.0246890844523906,-1.740724015404284,1.2972361517831683
1718292445397161700,24.45716162109375,0.6607061347007751,0.8869318881005048,1.4515794490158558
1718292445446931700,24.506931640625,-0.5152443553209305,-0.31186697806715963,1.4406941901251673
1718292445496702700,24.55670263671875,-0.18930968893468378,-2.341764785954356,0.22466504342164842
1718292445546473700,24.6064736328125,0.6739864720344543,1.0770061316668986,0.4325845941497013
1718292445596244700,24.65624462890625,1.9289596453666686,2.955383590787649,0.5485096421934664
1718292445646015700,24.706015625,0.27171616946458815,-0.301644274738431,0.26181473397947846
1718292445695786800,24.755786865234374,1.2213970669448375,0.33703824420273304,0.008789537853607907
1718292445745557800,24.805557861328126,1.0613269164979457,0.6773819596916437,-0.6737738521970809
1718292445795327700,24.85532763671875,0.9320435339808464,0.5718780966907739,0.7445231396157294
1718292445845098800,24.9050986328125,-0.9810223766833543,0.44890988866984843,0.8196043918240815
1718292445894869800,24.954869873046874,-0.6289367854744196,1.0165338350474833,-0.5487442911995575
1718292445944640500,25.004640625,0.8369178571313619,-0.04449555980861187,0.47757060435637827
1718292445994411800,25.054411865234375,-0.07311433604955672,0.10329320121407508,-0.21132188825113699
1718292446044182800,25.104182861328123,0.22090368159413337,1.211610416945815,-0.43492765014450996
1718292446093952800,25.153952880859375,0.32905952040851116,0.7226929275363684,-0.18855536343604326
1718292446143723800,25.203723876953124,-0.8339531621068715,-0.49195641871392726,-0.05236519720517099
1718292446193494800,25.253494873046876,0.3303115662962198,-0.19160335282981394,0.8932694205589592
1718292446243265500,25.303265625,1.737089166033268,0.26979776862263677,0.08168605730086564
1718292446293036800,25.353036865234376,1.0664321306824684,-0.2703022110134363,-0.5960489536121487
1718292446342807800,25.402807861328125,0.6276946764588356,0.009325462228059769,0.2181084979176521
1718292446392577500,25.45257763671875,-0.34976971548199653,-0.514318472647667,0.239061123444885
1718292446442348800,25.502348876953125,0.993240637743473,-0.03169453042447567,-0.11183014341294764
1718292446492119800,25.552119873046873,-0.01625730731785297,0.2976163343966007,0.14641659588664768
1718292446541890600,25.601890625,-0.2619464706003666,-0.044433015966415405,0.5295736171856522
1718292446591661600,25.65166162109375,-0.5123328517884016,0.5388739449724554,-0.02465162617564201
1718292446641432800,25.701432861328126,0.019317279410362244,1.192011836376041,-0.0019029110118746757
1718292446691202600,25.75120263671875,-0.5577846894085406,1.2055487788192927,-0.43118426236510277
1718292446740973800,25.800973876953126,-1.4346516950905321,0.06834083803743124,0.023049451676011082
1718292446790744800,25.850744873046875,-2.6974650605291126,-0.34568493038639425,-0.4342725837692618
1718292446840515600,25.900515625,-0.4151952505946159,-0.5106981632586568,-2.368027354457974
1718292446890286600,25.95028662109375,-1.2515583964526653,-1.4777189756616949,-1.3858251203402876
1718292446940056600,26.000056640625,-0.7901672118723392,-0.10066343723237514,-0.35228257508575916
1718292446989827600,26.04982763671875,-0.25736264994144437,-0.7183118629079311,-1.3830159081384539
1718292447039598600,26.0995986328125,-1.1387339813053607,-0.7346996647376567,-1.0014870725631713
1718292447089369900,26.149369873046876,-0.9228606950938701,-0.40640199554711576,0.05759001918137073
1718292447139140600,26.199140625,-0.8681447700440883,-0.4892715635441243,-0.06765110220760107
1718292447188911000,26.2489111328125,0.23339432985484598,-0.1742693561911583,0.21553470190688967
1718292447238682400,26.298682373046876,-2.3702853625178335,-0.4609899103030562,1.283759268964082
1718292447288453400,26.348453369140625,0.47011517378389833,-1.0352063868135213,-1.7966159984961152
1718292447338224000,26.39822412109375,2.042961287599802,3.526244619390368,-0.45426016365662214
1718292447387995100,26.4479951171875,-0.18981763845682142,-0.14234920031726359,0.2588140177935362
1718292447437765000,26.49776513671875,0.31480303151905537,-0.7975345257699489,0.6414757298562676
1718292447487536000,26.5475361328125,1.0397329243272542,1.5451941367805002,-0.4702946950692683
1718292447537307100,26.59730712890625,2.0183967551857234,1.1775818906158209,-0.900823196939379
1718292447587078400,26.647078369140626,2.1071973206669092,2.205396998134255,-0.44122912490889427
1718292447636848000,26.69684814453125,0.8697890301197767,1.5132126061081885,1.6240720047928392
1718292447686619400,26.746619384765626,-1.5309773953795431,0.34182781656682487,-0.4022172937409952
1718292447736390100,26.79639013671875,-0.09081132078170776,0.11762860055863857,-0.4311594201847911
1718292447786161200,26.8461611328125,2.0708891589671374,-0.1003296752333641,-0.19417049990408122
1718292447835932200,26.89593212890625,0.8803454954475164,0.9114327076286077,-0.4860593234993517
1718292447885702100,26.9457021484375,-0.6328121656030417,0.3640355567216873,-1.5496914481997488
1718292447935473200,26.99547314453125,-0.16690204229354857,0.286511587536335,-0.46950697875767944
1718292447985244200,27.045244140625,-1.5588883156120776,-2.016352682137489,-0.051613282859325406
1718292448035015200,27.09501513671875,3.0058558869183063,2.7602970720171927,0.9410340651661157
1718292448084785200,27.14478515625,0.17203998970389364,1.0434797096401451,0.011660042655467986
1718292448134556400,27.194556396484376,0.08951485123038291,1.3226423957183957,0.05663038036897778
1718292448184326700,27.24432666015625,-0.33982115291953086,0.30048516783118245,0.0011073767200112342
1718292448234097700,27.29409765625,-1.4107961877286432,0.7447457693904638,-0.25895634887367486
1718292448283867600,27.34386767578125,-1.2866437383592129,0.5777212697610259,-0.36717531605213877
1718292448333638700,27.393638671875,-0.9293547332882881,1.4123454629972576,0.16365765354484318
1718292448383409700,27.44340966796875,-1.8997768055021762,0.027491964168101547,0.24673867233544586
1718292448433179600,27.4931796875,-0.7422516144871711,0.4463328777886927,0.5178668127790094
1718292448482950700,27.54295068359375,-2.6744471730351447,-0.4280166286470368,-0.03401157519519329
1718292448532721700,27.5927216796875,-3.698170627325773,-0.4407557352434843,-0.30782004076391456
1718292448582492700,27.64249267578125,-3.995901528012752,-2.0142837669089437,0.3736535721555352
1718292448632262700,27.6922626953125,1.805527326965332,-3.4650516072809694,1.63063983887583
1718292448682033700,27.74203369140625,0.886582928532362,-0.46566769285574555,-0.04747311431467533
1718292448731804700,27.7918046875,-0.7220844402492046,1.1380801935717464,0.39938101086914535
1718292448781575700,27.84157568359375,-2.163375134962797,-0.5322711857065558,0.5504930710956454
1718292448831346000,27.891345947265624,-1.6238485713005064,-2.1761489840790627,1.0157057136602698
1718292448881116700,27.94111669921875,0.3683580960959196,-0.8883131133258342,-0.20352496903091669
1718292448930887700,27.9908876953125,-0.5295324083924293,-3.1712329116016624,-0.20467516197934746
1718292448980657700,28.04065771484375,0.897356836003065,-0.39594752928912635,-1.2540800238847731
1718292449030428700,28.0904287109375,1.2791092512011528,0.015748773273825643,-0.9174331170871853
1718292449080199700,28.14019970703125,6.608752953356504,6.933850584396719,0.04688618127219379
1718292449129970700,28.189970703125,1.9801766223847865,2.0040181012213227,1.5925225819274782
1718292449179740000,28.239739990234376,-3.378226725786924,-4.363732385364175,-0.6473564584579319
1718292449229511000,28.289510986328125,0.530021653214097,-1.3424901287436484,-0.6458724304452538
1718292449279282200,28.3392822265625,6.994737307035923,2.502416535681486,1.3173884207129478
1718292449329052000,28.389052001953125,4.27504229452014,1.4905886863678692,-0.44794148202911016
1718292449378823200,28.4388232421875,0.8744090911358594,0.6422533631652593,-1.807128916943073
1718292449428594200,28.48859423828125,0.23524375711381434,-0.6815788268595934,-2.3627027984343467
1718292449478364000,28.538364013671874,2.8547786057442424,1.893900606945157,-1.0081452152781187
1718292449528135200,28.58813525390625,10.573026001918315,1.8890750864848493,0.911389160747826
1718292449577906200,28.63790625,-3.4877193661630153,5.8964797130256885,-4.764655364978313
1718292449627677000,28.687677001953126,-2.2071593316316602,0.7977627815678715,0.6405503586396575
1718292449677447200,28.737447265625,-4.551778337973356,0.8788501423232257,-1.461034382842481
1718292449727218200,28.78721826171875,-2.0088877530843017,0.39648696992807086,-1.9358195942640304
1718292449776989000,28.836989013671875,-2.9277661005437374,0.009526391627639531,-0.15359335564821958
1718292449826759200,28.88675927734375,-2.3404420129179955,-1.7049318404026328,0.5927554650247097
1718292449876530200,28.9365302734375,-1.2461235119223595,-1.0630296287626027,-0.8458464289963245
1718292449926301000,28.986301025390624,-2.428652211290598,-1.2376204719930886,-1.890541944167018
1718292449976071200,29.0360712890625,-2.500915483468771,-1.0964708567239343,-0.9940566303014755
1718292450025842000,29.085842041015624,-0.724325497174263,-1.2931807389125227,-0.2959190289594233
1718292450075613000,29.135613037109376,-0.1317488958477974,0.6294260302960872,-0.3921004984721541
1718292450125383200,29.185383056640624,0.32311317922472954,0.0567851325392723,-0.4173608311306685
1718292450175154200,29.235154296875,1.7316800004661081,2.7095354375511405,-0.44824046497568487
1718292450224925200,29.28492529296875,2.3304694849580523,3.154136815372109,-0.6109571113433688
1718292450274695200,29.334695068359373,2.6194202823400494,1.2022077978283165,-1.2480997804313898
1718292450324466200,29.384466064453125,3.2116023313909765,2.0308610999614,1.0606007211152464
1718292450374237200,29.4342373046875,1.3464917656004427,1.250242053157091,0.514720879436098
1718292450424007200,29.484007080078126,0.38997079296708104,1.8469991550385951,-0.3532990586519241
1718292450473778200,29.533778076171874,0.048022564890980717,-1.0035282230019569,-1.4438237203225492
1718292450523549200,29.583549072265626,0.2770481781423092,2.211473687699437,-0.35711233332976694
1718292450573319200,29.633319091796874,2.4669348879337307,0.41353871555924415,0.7727445140369236
1718292450623090200,29.683090087890626,-0.6362777958869934,2.344202242234349,0.003902560396492481
1718292450672861200,29.732861083984375,-2.3061200565993785,1.2754203335553407,0.311217281986773
1718292450722631200,29.782631103515627,-1.3082675411462783,-0.036611382430046795,0.20585867267549038
1718292450772402200,29.832402099609375,-0.46464112628698345,0.5645098329450935,-1.2750140908420085
1718292450822173200,29.882173095703124,-2.694096460878849,0.7867012162622063,-0.5950295474365354
1718292450871943200,29.931943115234375,-5.181320103603601,-0.17792955919913947,-0.8258733160257339
1718292450921714200,29.981714111328124,-5.2278258341908455,-1.6986793558791278,-3.215859112052619
1718292450971484200,30.031484130859376,-1.7101485521376132,-0.44741555845886466,-1.2958748003020881
1718292451021255200,30.081255126953124,-2.4120091195255515,-1.548582756305486,-1.6491238823324441
1718292451071026200,30.131026123046876,-2.228582058888674,-1.8292717751681804,-0.34115985417738554
1718292451120796200,30.180796142578124,0.7466910582393408,0.6642427843943238,-0.9601093525141478
1718292451170568000,30.23056787109375,1.6757698971956967,2.7837521818846462,0.987629300667718
1718292451220339000,30.2803388671875,2.2482629109144208,1.6448358297497032,0.3688282708909362
1718292451270109000,30.33010888671875,2.6368548167437313,0.8405196810156107,1.9076985384121536
1718292451319880000,30.3798798828125,4.174449584436417,3.0016251174807547,0.7706808595053851
1718292451369650000,30.42964990234375,1.7218536029785871,2.867176315024495,0.09345602660421282
1718292451419421000,30.4794208984375,0.09322481166422367,0.7305611766934395,1.6297190707691014
1718292451469192000,30.52919189453125,1.7571598941594362,-0.6340098509550094,0.017551402249000966
1718292451518962000,30.5789619140625,5.589950004333257,1.7393536038339137,0.546838311447762
1718292451568733000,30.62873291015625,1.8320155209183693,0.8412994332164525,-1.2942499755792318
1718292451618504000,30.67850390625,-1.5191308902412652,1.9526526556432247,-1.961614837516844
1718292451668274000,30.72827392578125,-3.647123746177554,-1.8411752711907028,-1.4038329245872794
1718292451718045000,30.778044921875,3.5461528504312034,3.7416876974910496,-0.48021615042909976
1718292451767815000,30.82781494140625,-0.558781883752346,-1.9497515273742376,-1.5133619514510035
1718292451817586000,30.8775859375,-3.6981811487197875,2.391923778352141,1.599414387267828
1718292451867357000,30.92735693359375,-4.842377487084269,-2.0139087961167097,-0.6002560499131679
1718292451917127000,30.977126953125,-1.9747499211609363,-1.0754125057999044,0.8694590675130486
1718292451966898000,31.02689794921875,-0.29878479365408417,-0.6889719327855854,-0.8964712853401898
1718292452016668000,31.07666796875,-3.7514194024324414,3.542611816823482,-1.6770795184895395
1718292452066439000,31.12643896484375,5.982322013223171,-2.8578777408033607,2.8376731571644545
1718292452116210000,31.1762099609375,2.1977274864196774,2.607328570269048,-0.7554416431888937
1718292452165980000,31.22597998046875,0.5345756632566452,-1.1498256494883448,-1.6368939308345316
1718292452215750700,31.275750732421876,-3.2788813854157923,-0.6876273863088339,-1.5780702782049774
1718292452265521000,31.32552099609375,0.17550795807540415,-0.31992377206627276,-1.8243986161738632
1718292452315292000,31.3752919921875,-1.304769177636504,-0.5915100315408781,-2.8186873016655443
1718292452365061600,31.4250615234375,-0.9959013813853264,0.17491481448784468,-1.4340885082498191
1718292452414833000,31.4748330078125,-0.6336743353903294,0.657467737301439,-0.8890349978595972
1718292452464604000,31.52460400390625,-1.468477976846695,0.1162611115977168,-2.0713049001611767
1718292452514374000,31.574373779296874,-1.9709972906291484,1.3627376747414468,-0.11564224904701113
1718292452564145000,31.624144775390626,-1.9299486564040182,-0.6982219186246394,-1.412494954470545
1718292452613914600,31.67391455078125,-2.0338924304813144,-1.4914461799800396,-0.0769512838639319
1718292452663686000,31.723685791015626,3.3392607430547474,9.15529504649043,-1.1148406261511146
1718292452713457000,31.773456787109374,3.8191953000634906,3.18649302457571,1.0058030360661447
1718292452763226600,31.8232265625,2.1807336815208194,0.0007172083586454391,0.05802548798918724
1718292452812998000,31.872997802734375,1.6352525933682918,0.6250444542109966,-0.6241404911085963
1718292452862767600,31.922767578125,3.7474896617680784,1.2420493943512438,-1.9915292065262793
1718292452912539000,31.972538818359375,-1.9296271693646907,-0.45336277642548084,-2.911787025645375
1718292452962308900,32.02230883789063,1.1899644023269413,2.239254259550571,-0.9119305741481483
1718292453012079600,32.07207958984375,6.616857349357009,1.7214084895595907,0.5521250562116503
1718292453061851000,32.121850830078124,0.14292612342238425,6.008570553201436,-3.3557205872073768
1718292453111620900,32.171620849609376,-0.2962479686528444,-0.438856404428184,-1.3117030685529112
1718292453161391600,32.2213916015625,-5.236176313906908,1.0597782988164572,-1.5170914933681487
1718292453211161600,32.27116162109375,-4.697737545481324,1.0306289228301495,-2.358822596000135
1718292453260932400,32.32093237304687,-3.713396838030219,-0.23971834524460137,0.8602282978311181
1718292453310702600,32.37070263671875,-3.1366555192172525,-1.1790830158937722,-2.00714733915776
1718292453360473600,32.4204736328125,-4.245699880179763,-3.1136972529560327,-0.6796680248022079
1718292453410243600,32.47024365234375,-1.1014379776120184,-0.2339243450783193,-2.132417686641216
1718292453460014600,32.5200146484375,-1.9969559077501295,-1.9231255323857068,-1.5996183854073285
1718292453509785600,32.56978564453125,-1.3153519464492798,0.02299041496515274,-1.835438188843429
1718292453559555600,32.6195556640625,0.6277297477722168,2.388973696374893,-0.7090251983202993
1718292453609326600,32.66932666015625,3.0605536917895075,2.1332728421658276,1.3285364221930502
1718292453659096600,32.7190966796875,6.210678933432698,6.606781945544481,-1.3717948414221406
1718292453708867600,32.76886767578125,-1.2975807274371385,-0.17801497246026993,-0.2948786530610174
1718292453758637600,32.818637451171874,-0.03233984259068966,-0.5065016614168882,-0.6363799410872161
1718292453808408600,32.86840869140625,3.129761668050289,0.2580021168887615,0.555624296504259
1718292453858178600,32.918178466796874,2.3608611160904167,1.3626602255910634,-1.92297969417423
1718292453907949600,32.96794946289062,3.6533448126494883,3.292776055255532,-0.04796937339901924
1718292453957719600,33.017719482421874,0.030060791742801664,2.019035053089261,-1.3064445635028183
1718292454007490600,33.06749047851562,1.3502578401356935,4.7057431572824715,-1.2646117931626737
1718292454057260500,33.117260498046875,-1.3067203117042778,1.731294216018915,-1.9601947415858505
1718292454107031600,33.16703149414062,-4.007553971883654,0.5736776934586465,-2.1373075045093892
1718292454156801300,33.21680126953125,-4.3159974052429195,-0.307142652959004,-0.5617281663373113
1718292454206572300,33.266572265625,-2.4933652142196894,-1.0829481620017438,-0.04320113608390093
1718292454256343300,33.31634326171875,-3.440118826076388,-0.8236018639624119,-0.11465279961824416
1718292454306113300,33.36611328125,-7.305879477959871,-3.0806276347860693,-1.2212968214407562
1718292454355884300,33.41588427734375,-7.683286557430028,-3.336711643093824,-2.9921102701604365
1718292454405654300,33.465654296875,2.769308061468601,8.035845026847719,-0.9900209450446069
1718292454455425300,33.51542529296875,6.805766640797257,6.09787848368287,0.7252644585248083
1718292454505195300,33.5651953125,1.6396598884165285,2.8674311665683985,0.7550958254259079
1718292454554966300,33.61496630859375,-1.2245166602700948,-0.8608815010428428,-0.686923548888415
1718292454604736300,33.664736328125,1.8244710968881845,1.4051491217523813,-0.8257979127019643
1718292454654507500,33.71450756835937,5.587708947408199,0.8901818298071622,1.9328982999898492
1718292454704277200,33.76427734375,0.9550853868722915,1.7610341052442788,1.5951457700379192
1718292454754048300,33.81404833984375,2.485357848852873,4.7189638733834025,-0.7324393916554749
1718292454803818200,33.863818359375,7.185949030199646,5.551127229464054,-1.669071860861778
1718292454853589200,33.91358935546875,-2.414643559682369,4.79678682551533,0.009292875132709742
1718292454903359500,33.963359375,-1.7963269524216652,-0.4777113280013203,1.6148557020276784
1718292454953130200,34.01313012695312,-4.719489358562231,0.1508162921503186,-0.8120321299389004
1718292455002900500,34.062900390625,-3.2887001841187473,3.0623394061625,-3.136645290084183
1718292455052671200,34.11267114257812,0.29066169295310973,-1.0170512099850921,0.6428270713999867
1718292455102441200,34.162441162109374,-2.0183646064817906,0.9274030877638607,0.16368366476893423
1718292455152212500,34.21221240234375,-0.7189642624020576,-1.2081235977433622,0.17367431290745733
1718292455201983200,34.26198315429688,-4.751574934130907,-1.2656805914379656,-1.3782561463907361
1718292455251754000,34.31175390625,-6.775588944676518,-1.8601666796475649,-1.898462215772271
1718292455301524200,34.36152416992188,0.016371289086341858,-2.293982751820981,0.8926857754521071
1718292455351295000,34.411294921875,-0.0186176067084074,-1.6531886475533246,-0.5250516097165644
1718292455401065200,34.46106518554687,-1.348998195463419,-2.796733244010806,0.7419913561157881
1718292455450836200,34.51083618164063,2.6810861726582047,1.1119839215457439,2.3773405417263507
1718292455500606000,34.56060595703125,2.775405209299922,5.949304709762335,-2.178808266416192
1718292455550377200,34.61037719726563,2.9047388606995344,0.6994803942531347,-1.53698861849308
1718292455600147000,34.66014697265625,-0.32963352090418335,2.023930423915386,-1.2736666217558086
1718292455649918000,34.70991796875,2.6989719579607248,0.9779472070217132,0.9392125488273799
1718292455699688200,34.75968823242187,3.9420115323930975,1.474233179372549,0.16153708119429647
1718292455749459000,34.809458984375,1.5316192004144191,2.4083131876170634,-1.149969953329861
1718292455799229200,34.85922924804687,-1.634131480383873,0.95626319848001,-2.6660139834716916
1718292455848999000,34.9089990234375,0.20516952136754987,0.7149813302457332,2.9975425243422387
1718292455898770200,34.95877026367187,1.5647043084144592,0.20213234562873839,1.6467631445504725
1718292455948540200,35.0085400390625,-0.3611971184253692,1.4951684153735636,-2.5974115718886255
1718292455998311200,35.05831127929687,-3.0502807195782657,1.4023248581118881,-2.1408730880364772
1718292456048081200,35.1080810546875,1.4392296705305576,1.9537606168851256,0.6893436156421899
1718292456097852000,35.15785180664062,-4.475722103253006,-0.3164837511476129,-1.3312252228856085
1718292456147622100,35.2076220703125,-4.649826039749383,-0.450526164760068,-0.03892681976556778
1718292456197392600,35.257392578125,-3.0789965264528987,-1.7368695319332181,-1.024656643487513
1718292456247162600,35.30716259765625,-4.713462937879562,-2.0075024362057445,-0.9452255255065858
1718292456296933600,35.35693359375,-2.189992508253455,-2.387190612350404,-0.46814767310321326
1718292456346703600,35.40670361328125,0.4159194732159376,-1.2107213591516017,1.2093142688326537
1718292456396474600,35.456474609375,2.800841848373413,2.193982454672456,0.9288227453034371
1718292456446244600,35.50624462890625,0.6920891149580478,2.2660592643678186,-0.6598162731889635
1718292456496015600,35.556015625,4.200330460146069,3.415107718938589,-0.12748217831403016
1718292456545785600,35.60578564453125,6.548878622630238,8.013594032073021,-0.25234869423694906
1718292456595555600,35.6555556640625,-0.4010451446890831,-0.6578653583168983,0.04585000662487
1718292456645326600,35.70532666015625,-0.9106196376800536,-1.8957512032479047,-0.9502861698970199
1718292456695096600,35.7550966796875,1.9349217686414717,0.7306172907948494,-2.6938562223821876
1718292456744867600,35.80486767578125,3.1125428222239018,1.6601391973435877,0.46867461958676576
1718292456794637600,35.854637451171875,-1.062563180294633,2.947248215126991,-1.4839353659585117
1718292456844408600,35.90440869140625,4.121448646610975,3.3685210320696233,-0.7830772536113858
1718292456894178600,35.954178466796876,-1.6620587672293186,2.1808754280790685,-0.2180272493749857
1718292456943949800,36.00394970703125,-3.862251766979694,1.4746780005306004,-2.361893966269493
1718292456993719600,36.053719482421876,-5.349420415771007,-0.3892279021779075,-2.258123502932489
1718292457043489800,36.10348974609375,-3.42187589789927,-0.10212868747934699,-0.11404752720147371
1718292457093260500,36.153260498046876,-6.211469791549444,-1.1853377654395998,-0.7371575062185526
1718292457143030500,36.20303051757813,-2.024582750344276,-1.9459896906226872,-0.5329717351913452
1718292457192802300,36.25280224609375,-1.8273989670336246,-0.5515376117125154,-0.7602749085642397
1718292457242572000,36.30257202148437,-0.10599252330064773,-1.1975704934164881,1.8051580552615225
1718292457292343000,36.35234301757812,-1.3850871614545583,0.7604857748359442,-0.6777604376152158
1718292457342113000,36.40211303710937,0.601667670276761,3.6565146748572586,1.213177666262537
1718292457391884000,36.45188403320312,-0.0988613562464714,-1.0891419751405715,0.9368884167287498
1718292457441654300,36.501654296875,2.9801199726372953,5.013264799621701,-0.35605285087209193
1718292457491424000,36.551424072265625,3.646522857674956,0.7294394791871309,1.2154561325885356
1718292457541195300,36.6011953125,2.09811326597929,0.222497088265419,2.790912575033307
1718292457590965000,36.650965087890626,2.011261496478319,5.7109378521919245,-0.15075505434921943
1718292457640736000,36.700736083984374,6.159318164029717,0.44856911240816116,-1.9451351196199655
1718292457690506000,36.750506103515626,1.2909002267599106,0.380793214777112,-0.8344094545070081
1718292457740277000,36.800277099609374,-0.03653729428052902,1.8526564501479268,2.6271272034555673
1718292457790047200,36.850047119140626,-1.0336977358162402,0.773410430599749,0.35812326393797994
1718292457839817000,36.89981689453125,-0.12731003661751747,2.769409476016462,-2.024825180798024
1718292457889588200,36.94958813476563,-3.1711651070624587,-1.4784705246813594,-1.1525129158109426
1718292457939358000,36.99935791015625,-2.961545620548725,2.1303841349869965,2.6443559861540793
1718292457989129000,37.04912890625,-7.943784582787751,-2.742017611221969,-0.47825215687975287
1718292458038899200,37.09889916992187,-7.488052739143371,-3.030255584159493,-0.34852103059515355
1718292458088669200,37.14866918945312,-2.7157728706359863,-0.8246046112641692,0.8772571009781212
1718292458138440200,37.19844018554687,0.2783937475323677,-1.3508452846348284,1.9822956603653727
1718292458188209700,37.24820971679687,0.7223328620523214,4.678422604158521,-1.320699298826605
1718292458237980700,37.29798071289063,4.6199715842336415,5.517136697056889,1.235225101289153
1718292458287750700,37.34775073242187,7.155750875812768,5.612137286221981,-0.10999123754799366
1718292458337521700,37.39752172851563,3.00409589150846,0.5927694935500621,4.316033937861025
1718292458387291600,37.44729174804687,1.0702601645380259,2.590389418166876,0.7209729718759655
1718292458437062000,37.497061767578124,1.909788496428728,-1.1065449453622103,-0.8523391520164907
1718292458486832600,37.54683251953125,1.0239613546997308,1.8718541948318481,-1.1712811099711804
1718292458536602600,37.5966025390625,-0.0032476036190986633,0.6606751550406217,1.617191451498866
1718292458586373600,37.64637353515625,4.675996838316321,6.18975012717247,0.18871654534712431
1718292458636143600,37.6961435546875,-1.558690162691474,3.9565778178840874,-2.003510151699185
1718292458685913600,37.74591357421875,-5.465461454877257,-0.2411828648392111,-0.4957853293523192
1718292458735684600,37.7956845703125,-6.565833849084377,-0.715953755474463,-0.34859453422278164
1718292458785454800,37.84545483398438,-5.639738409852981,-1.712023406098783,0.8502195295140147
1718292458835225600,37.8952255859375,-5.372311462014913,-2.6010572349146006,-0.04603109881281853
1718292458884995600,37.94499560546875,-2.2247049251943825,-1.232240386389941,-1.3330749424055217
1718292458934765600,37.994765625,-2.404672785288095,-0.29375089114010333,-1.2881598420105873
1718292458984536600,38.04453662109375,-0.8735784855306148,1.7125760715454816,-1.0293635790694504
1718292459034306800,38.09430688476562,-0.1255646542549133,2.8961346984833476,-1.278198566097021
1718292459084077600,38.14407763671875,2.7003637045800684,0.15557576163709164,0.5066815480284392
1718292459133847800,38.19384790039062,4.520609877249599,5.977122106492519,0.8630053613290191
1718292459183617800,38.24361767578125,2.8462907633841037,1.5211743787676095,1.8664213561281562
1718292459233388800,38.29338891601562,1.653180464246869,0.6142968502253293,0.3537139961283654
1718292459283158800,38.34315869140625,-0.7894885819584131,0.28995909764170646,-1.231347675333917
1718292459332928800,38.3929287109375,1.5056494773775337,1.0719634613245725,-1.2837258050858973
1718292459382700000,38.442699951171875,2.9407775578081607,3.1933518044292923,1.999152248750627
1718292459432469800,38.4924697265625,0.6603864012271166,2.281474860164523,0.2285688824597746
1718292459482241000,38.542240966796875,-0.578054739499092,1.7207137852936982,0.5928937044516206
1718292459532010800,38.5920107421875,-3.0175884102880954,3.488253034648299,0.42191082258522505
1718292459581781000,38.64178100585937,-2.021799257105589,0.25723770838752386,-1.2502812161237
1718292459631551700,38.6915517578125,-6.343745926141739,-0.8305285944856703,0.43766631786078214
1718292459681322000,38.74132202148437,-4.591930315619707,-2.038573427904397,2.2855028005063533
1718292459731091700,38.791091796875,-4.32280474717021,-3.2525413677617907,0.1252675710044801
1718292459780862700,38.84086279296875,-4.266084496560692,-0.5842126776069403,-0.2944163693115115
1718292459830633000,38.890633056640624,-1.6713748771071433,0.4598620753169059,1.1197133467540143
1718292459880402700,38.940402587890624,-1.3548358155757187,-0.030786475668847558,0.5480447280954569
1718292459930174000,38.990174072265624,-0.2363964342802763,1.8638743019938468,2.526286948351562
1718292459979943700,39.039943603515624,3.581502980753779,3.583092295771837,3.08548413490653
1718292460029714000,39.0897138671875,4.134292930614948,5.346708818724752,2.1999352255970237
1718292460079485000,39.13948486328125,3.6010944009304047,1.4048901785552501,0.8712607831727713
1718292460129255000,39.1892548828125,4.090966999107599,1.267601768758893,1.325289695356786
1718292460179024100,39.239024169921876,2.98563201405704,1.317824474042654,-0.017872012505494056
1718292460228795400,39.28879541015625,2.4842244609087705,-0.714336602601409,-2.6219015777617694
1718292460278565400,39.3385654296875,2.193462230190635,2.5416332783043383,-1.3129198969967661
1718292460328335400,39.38833544921875,-0.3200397631287575,1.955283296407759,0.048861061541736125
1718292460378106400,39.4381064453125,0.13501988034248352,3.054541884154081,-1.1715456791915
1718292460427876400,39.48787646484375,-3.308732918322086,-0.07535173971280455,-2.1963269719719887
1718292460477646300,39.53764624023437,-6.541839225512742,-1.529191388745606,-0.2851595884054899
1718292460527417300,39.58741723632812,-7.847375295868516,-2.4376716763094066,1.303180154879391
1718292460577187300,39.637187255859374,-6.3495858843415975,-2.224412371988594,0.9116811294317245
1718292460626957300,39.686957275390625,-4.471209594264626,-3.531875026492774,-0.1818142186127603
1718292460676728300,39.736728271484374,-1.7724632617533207,-0.9100964905887842,-0.44619887614548204
1718292460726498300,39.786498291015626,1.157064587765932,2.7353026237532494,-0.21020123192444443
1718292460776268300,39.83626831054688,3.235619751316309,4.269399904718995,-2.127775413793325
1718292460826039300,39.886039306640626,4.386210759153962,3.7652521129518743,1.3064737895973026
1718292460875809300,39.93580932617188,3.9208489173769947,1.868086951252818,0.7407960088513791
1718292460925579300,39.98557934570312,2.012708772677183,1.6670850709587335,1.7123250193938613
1718292460975350300,40.03535034179688,3.5153900478988884,1.572916256442666,-0.28651487547196447
1718292461025120300,40.08512036132812,3.5859675589472055,1.4869921231806278,-2.3154513640463352
1718292461074890500,40.134890380859375,0.702562578177452,0.836537333381176,-1.1934994445852936
1718292461124661200,40.1846611328125,0.9193447959274053,2.226730878064036,1.8007346858613191
1718292461174433000,40.23443310546875,-1.2118752053618431,2.5428587284460664,1.1714800666093825
1718292461224202800,40.28420263671875,-2.0223159744560717,2.3734534711599347,-3.063229925261438
1718292461273973000,40.33397290039063,-1.8897814811885356,0.4625220517737791,-1.5056372024178504
1718292461323743700,40.38374365234375,-5.1475937750905745,-0.54071168179363,0.127721247766912
1718292461373514000,40.43351391601563,-6.945123089039325,-2.7754595698356628,-1.1096034561499952
1718292461423283700,40.48328369140625,-5.523651193517447,-1.1992892069678753,-0.018939093747735024
1718292461473055000,40.53305493164063,-4.749626138150692,-1.9862047966331242,-0.5385450052790344
1718292461522825000,40.58282495117187,-1.3169862696528434,0.04121288487613201,0.4522097339328378
1718292461572595000,40.632594970703124,-1.1348714606583117,3.4529648636460304,-0.30982495084553957
1718292461622365000,40.682364990234376,2.540495798707008,2.122631036642194,-0.08682323752623052
1718292461672136000,40.732135986328124,4.571194401583075,4.412897690549492,0.5028326905805617
1718292461721906000,40.781906005859376,7.71480105511248,2.782529362091422,1.7017580326721071
1718292461771676000,40.83167602539063,2.377664951375127,1.341467215436697,1.0603910969525574
1718292461821446000,40.88144580078125,1.617553270548582,-0.2723030294418335,-2.2981954010799526
1718292461871217000,40.931216796875,0.9775964938879013,1.0788789398014544,-3.3821278248786926
1718292461920987000,40.98098681640625,1.7547826436340808,4.022802394419909,0.423989528555423
1718292461970757000,41.030757080078125,1.8172119195401668,2.224467317046225,0.8844562917672097
1718292462020526800,41.08052685546875,-1.130292316174507,3.94798446932286,-1.5546081540748475
1718292462070297900,41.1302978515625,-0.7263759999632835,0.5968715220414101,-1.5518644083246589
1718292462120067800,41.18006787109375,-8.783091380882263,-0.5985401128407567,-1.7075635040804742
1718292462169836000,41.2298359375,-7.3710676971852775,-2.5061606906458733,-0.6689172059461475
1718292462219607000,41.27960693359375,-7.513551922059059,-3.229908387932181,-1.1852499410256743
1718292462269377000,41.329376953125,-3.647185120975971,-1.9135003565587103,-1.6528697908625005
1718292462319147000,41.37914697265625,-1.544789647632837,-0.056225160568952555,-1.9234718616053461
1718292462368917000,41.4289169921875,1.5854092427909374,3.620273148652911,-1.634573378932476
1718292462418687200,41.47868725585938,0.8882084839075803,4.150704551711678,-0.3413507005743682
1718292462468458000,41.5284580078125,2.6952105596005915,2.1591309215217827,0.21915625340491532
1718292462518228000,41.57822802734375,5.381867810389399,2.174028046402335,1.1512211954999714
1718292462567998200,41.62799829101562,3.2448803316146133,1.6217413698881864,-1.0367308929670602
1718292462617768000,41.67776782226562,2.718983064854145,2.53991419942677,-2.9894837210491296
1718292462667539200,41.72753930664062,3.2090608302146193,3.4453327613323923,-3.114507400295138
1718292462717309000,41.77730883789062,-0.21345395011007784,2.504456517076492,0.05295096120387315
1718292462767079200,41.8270791015625,1.3167723346412181,5.210757795011997,2.0198829020902513
1718292462816849000,41.876848876953126,-4.299380616962909,1.9352071614541113,-3.503225270591676
1718292462866620200,41.9266201171875,-3.329925343954563,0.2725490035595372,-2.4909163597628474
1718292462916390000,41.976389892578126,-4.273277038413286,-1.895379447326064,0.11414660366177558
1718292462966160100,42.02616015625,-5.947686753171682,-1.978746151190251,-0.3191962980419397
1718292463015929900,42.07592993164062,-6.100650871005654,-3.0739246300160885,-0.4842816463023424
1718292463065700000,42.1257001953125,-3.9466520516753194,-2.335305088420957,-1.5594886195927857
1718292463115471000,42.17547119140625,-0.6678636052399873,2.484761636525392,0.6556706978168338
1718292463165241900,42.22524194335937,-0.10233516983687876,4.272832217255234,-0.43588820227235553
1718292463215011800,42.27501171875,3.560578266146779,3.779889710113406,0.9949077672380954
1718292463264781800,42.32478173828125,5.942140224960446,5.056275673830509,0.4079902511192485
1718292463314551800,42.3745517578125,4.290697544291615,1.7975591245651243,0.9601232349090277
1718292463364322800,42.42432275390625,1.478263457801938,0.21296119815707207,-0.08730937707535923
1718292463414092800,42.4740927734375,2.30734755256772,0.5261398433446883,-1.8502910361908376
1718292463463862800,42.52386279296875,2.564414434432983,2.923094601601362,-0.5310406209982931
1718292463513632800,42.5736328125,2.3476591046899555,3.856331144759059,1.1747701941959559
1718292463563403000,42.623403076171876,0.44442952838540073,3.998020712123811,-0.3343706324286759
1718292463613174000,42.673174072265624,-5.703247882211208,0.09831555893197655,-2.936012243102491
1718292463662943700,42.72294384765625,-5.063948108154535,0.1850080096853897,-0.9967632589116692
1718292463712714000,42.7727138671875,-4.143479861155152,-0.010518361807055772,-0.17529869923889635
1718292463762483700,42.82248364257813,-6.968431483912467,-3.2777173100724815,0.33076398623883724
1718292463812254000,42.87225390625,-5.533707308107614,-2.808738446842134,-0.36548049483299255
1718292463862024000,42.92202392578125,-3.2836148436784742,-1.3919082396462559,-1.7512047851473092
1718292463911795000,42.971794921875,-1.0324977123767136,1.6732430090665815,-1.0958705527432262
1718292463961564700,43.021564697265624,2.2158663697004317,3.9554941143006084,-1.8915961293950676
1718292464011335000,43.0713349609375,7.328816116911172,6.233403975459933,1.9419133810944853
1718292464061105000,43.12110498046875,7.658202969577908,4.599203521493077,-0.3585848170351237
1718292464110875000,43.170875,0.6162438926398753,0.1073135427713394,-1.391291422922164
1718292464160644900,43.220644775390625,0.8085410729527474,-0.17818214572072028,-0.554000933086127
1718292464210415400,43.27041528320313,1.7873551259368656,1.3100281210780143,-2.383305295349657
1718292464260185600,43.320185546875,1.1256710861146448,4.46349975053966,0.6905585443899035
1718292464309955300,43.369955322265625,1.1531325090140103,3.012420944522321,1.5928842548467217
1718292464359725600,43.4197255859375,-1.057411788880825,3.4980548822164534,-1.5567986498564481
1718292464409495300,43.46949536132813,-1.2560282353430985,0.9658294106613844,-2.4062770056143403
1718292464459265500,43.519265625,-9.051640610748528,-1.202551423634216,-1.4350655365884304
1718292464509035500,43.569035400390625,-6.840476135128736,-1.8673427087567747,-0.5542468706712126
1718292464558806500,43.618806640625,-7.964114254111051,-3.2757644224390385,-0.22113193739205597
1718292464608576500,43.668576416015625,-2.1128806270003317,-2.212704983060062,0.14320216388478874
1718292464658346500,43.71834643554688,-1.7569868756800888,-0.5585471982136369,0.9052744041945785
1718292464708116500,43.76811645507812,0.0720002373278141,3.711631581923365,-0.811541569942981
1718292464757886500,43.817886474609374,4.398904236510396,4.301690062949061,0.030142606541048732
1718292464807656400,43.867656494140626,5.211625225496292,3.8642484937548636,0.49607035683877765
1718292464857426400,43.91742651367188,4.339370097523927,2.0846464661628006,0.18699954882878808
1718292464907196400,43.96719653320312,2.7984388788849115,0.33356209252476693,0.13983488854193127
1718292464956967400,44.01696752929688,2.2313222975075244,0.6004664777934551,-1.768337413994968
1718292465006737400,44.0667373046875,2.4252432796299455,3.0880437562614675,-1.0945979755241424
1718292465056507600,44.116507568359374,1.596419297105074,2.5702815729007122,2.0695658014088867
1718292465106277400,44.16627734375,0.6679565442204475,3.6298493707716464,0.2939532818444073
1718292465156047600,44.21604760742188,-0.5369745410919189,1.622966673899442,-2.8444296456873417
1718292465205817300,44.2658173828125,-7.846407912141085,1.555879489184916,-0.2588695473730564
1718292465255587600,44.315587646484374,-9.202926566237212,-1.950717888188362,-1.9348326290532945
1718292465305357600,44.365357666015626,-8.942939413011073,-3.5180285797089335,0.9784437583670019
1718292465355128600,44.415128662109375,-6.314135216253995,-2.679204012173414,-0.6343231546878815
1718292465404898600,44.464898681640626,-1.5460627363085746,-1.2378016737788915,-0.4368932876616716
1718292465454668500,44.51466845703125,0.5126251127332448,4.275869100733101,-0.6823394359685481
1718292465504438500,44.5644384765625,3.6887493035078047,4.4604292570531365,2.027367120365798
1718292465554208500,44.61420849609375,3.671624565705657,3.778028007894754,0.07877197821876034
1718292465603978800,44.66397875976563,3.313041429170966,0.8601607855528592,0.3699945381913334
1718292465653748500,44.71374853515625,4.465573634204268,3.7406530937463045,1.0232043257873504
1718292465703518700,44.76351879882812,3.985905619177222,1.7777128528445958,-0.6499282086420803
1718292465753288400,44.81328833007812,-0.10387070884108543,0.7492237915873527,-2.917943210187554
1718292465803058700,44.86305859375,4.122569759595394,3.523505549815297,1.2833163475021718
1718292465852829400,44.91282934570312,0.7581155385732651,5.086096811598539,1.6560054585397244
1718292465902599700,44.962599609375,0.2051169143974781,2.1069247873358425,-2.2908936997644602
1718292465952369400,45.01236938476563,-9.190046041876077,1.1856792723536491,-1.8632310356542467
1718292466002139600,45.0621396484375,-9.452563005840778,-1.5044804335981607,0.8552069625377654
1718292466051909400,45.11190942382812,-9.166519035816192,-4.594183062982559,-0.5907698441654443
1718292466101679600,45.1616796875,-4.10885044632256,0.8291937656853348,-0.3834497206352651
1718292466151449300,45.21144946289063,-2.844688588884473,-1.5846394274622202,-0.45484833880811926
1718292466201219800,45.2612197265625,-0.7323468910664319,1.048510105022788,-0.6258899651244282
1718292466250989600,45.310989501953124,1.4770201797425746,4.835966450998186,1.0893224462740123
1718292466300759800,45.360759765625,5.851008001661301,6.073730130854249,2.093315802569687
1718292466350529800,45.41052978515625,2.940170239564776,2.0703198346465825,1.4438491470247505
1718292466400299800,45.4602998046875,2.5198440558224915,0.005358896684646606,0.03992755320675205
1718292466450069800,45.51006982421875,0.7254138769328594,-0.2522130120933056,-0.803950311096385
1718292466499840800,45.5598408203125,1.5557728139400482,0.735164871096611,-2.8315426915854216
1718292466549610500,45.609610595703124,2.295210540050268,1.1245119792073965,1.626803621713817
1718292466599380700,45.659380615234376,6.427561688947677,7.466613645273447,0.4635626834005117
1718292466649150700,45.70915063476563,-1.6394149737447499,4.042755341385305,-0.5490181762374937
1718292466698920700,45.75892065429687,-5.810200774976611,0.7041327501036226,-1.3570323027066886
1718292466748690700,45.808690673828124,-7.475413622322678,-0.9457537871643901,-1.9843565384179354
1718292466798460700,45.858460693359376,-6.027631227502226,-0.21796167332548647,-0.3324766353756189
1718292466848230700,45.90823071289063,-5.341155860772728,-3.1615348166689277,1.0038087935090065
1718292466898000600,45.95800073242187,-3.564825986719131,-2.3819661557003853,0.21745397953167556
1718292466947770600,46.0077705078125,-2.0359400106608865,-0.7495236513167619,-1.1923298162840306
1718292466997540600,46.05754052734375,-2.3305986642956733,0.3390425697624683,-1.3361100723177193
1718292467047310600,46.107310546875,-0.5525093793541193,1.1160673914670944,-2.11236157156229
1718292467097080800,46.15708081054687,4.803943419271707,3.941880599489808,0.5115243484171107
1718292467146850600,46.2068505859375,3.8734804324805734,1.9818892715215681,1.3436198634259402
1718292467196620300,46.256620361328125,5.394666501685976,4.448887287819385,0.115261323438026
1718292467246390300,46.306390380859376,2.8626860178679228,1.6266484311521052,-0.08212024746704846
1718292467296160300,46.35616015625,0.0008446341305971145,1.3411018892556428,-0.8703742826618254
1718292467345930200,46.40593017578125,0.8357891453623771,0.6273778655946254,-0.9454996662728488
1718292467395700200,46.4557001953125,1.4067863675653933,4.186494827017188,0.5238049706563354
1718292467445470200,46.50547021484375,-0.04105915561914444,3.7973116772964595,0.008252718430012464
1718292467495240200,46.555240234375,-1.5683224989116191,0.7312392220854759,-1.6002508380919693
1718292467545010400,46.60501049804687,-1.9250152916550636,-0.3029600335121155,-0.4316945499747991
1718292467594780200,46.6547802734375,-6.7690534054279325,-1.1384292262051254,-0.7683163223311305
1718292467644551200,46.70455126953125,-6.916465734353661,-1.740738628451526,-1.1443465604901313
1718292467694321400,46.7543212890625,-8.188872273045778,-2.801744057910144,-0.19744477233439683
1718292467744091400,46.80409130859375,-4.133293398183584,-1.4427265727356076,-0.4346906630508601
1718292467793861400,46.853861328125,-2.7813573957026003,-0.11714490869492292,-1.423119808859378
1718292467843631400,46.90363134765625,2.4757091460198164,3.0455279720932245,-0.3365986106764525
1718292467893401300,46.9534013671875,3.3240924000173804,4.891446346157789,-0.23555950853209942
1718292467943171300,47.00317138671875,4.2743525586903095,2.781667776826024,0.3747800189021975
1718292467992941300,47.05294140625,4.514868118727207,0.8290876018971204,0.47034357571229335
1718292468042711300,47.10271118164062,3.4365859757751225,1.950486417520046,0.012245623991079627
1718292468092481300,47.152481201171874,2.4022721538871523,1.0650941600769757,-1.2009312750864773
1718292468142251300,47.202251220703126,1.205814297887683,2.170331529971957,-3.5858538694396613
1718292468192022000,47.25202197265625,1.9515876567602157,1.9476684374898672,0.8207713167116045
1718292468241792000,47.3017919921875,0.5076338803172111,3.6651556619524954,1.7740487773790954
1718292468291562000,47.35156201171875,0.062190790975093835,2.105332111316919,-1.1558645643264054
1718292468341332000,47.40133203125,-4.528606721222401,0.8447031772453337,-2.3259970157191154
1718292468391102000,47.45110205078125,-6.4870636792302125,-0.7895441115379334,-0.5371712327077984
1718292468440872000,47.500871826171874,-7.600225996905565,-3.3832001302853225,-1.5132295572429895
1718292468490642200,47.55064208984375,-7.380286776429414,-3.483213579176366,0.4674366022244095
1718292468540412000,47.60041186523438,-4.202462795999646,-1.7544949127338825,-1.458181039237976
1718292468590182100,47.65018212890625,0.1235609132170677,1.0997209445610643,-2.4688357531189915
1718292468639952000,47.699951904296874,0.2594821263134479,5.305462031579017,-1.5935465181477366
1718292468689722000,47.74972216796875,3.8267175122618675,2.164082406449318,0.25812019031047817
1718292468739491800,47.79949194335938,4.979946467387676,3.76557710712254,-0.9865322261460124
1718292468789260800,47.8492607421875,4.786487842079997,0.9654869538992643,1.315871878670156
1718292468839031000,47.89903100585938,2.5828636988371607,0.7040338197737932,-0.5238626921929419
1718292468888800800,47.94880078125,0.13804653468728065,0.6753717889130115,-1.1210721409518272
1718292468938571000,47.998571044921874,1.2002385435819625,3.1854701112687587,-2.1683964702561496
1718292468988340700,48.0483408203125,6.217841664668917,7.3983864967435595,2.851156323593855
1718292469038111000,48.09811108398438,-1.831056905019283,1.6662795997947453,-0.06581731090918183
1718292469087881200,48.14788110351562,-4.253621905350685,1.52158836639598,-3.1435484936013816
1718292469137651000,48.19765087890625,-2.187738007324934,-0.8420780163735151,-2.1311785002350807
1718292469187421400,48.24742138671875,-5.05754116372168,-1.3409842542253434,-0.7275356913924217
1718292469237191200,48.29719116210938,-4.528063115864992,-4.777545533950627,-0.6641559828937054
1718292469286961400,48.34696142578125,-4.694674650779366,-1.8780032189808784,-0.2999453618660569
1718292469336731100,48.396731201171875,-4.454180718052387,-0.8690186302691698,-2.1436057278707623
1718292469386501400,48.44650146484375,-1.259276423484087,-0.224404967713356,-1.97657070684731
1718292469436271000,48.49627099609375,2.153528279209137,5.918967439165711,-0.11764314054064452
1718292469486041300,48.54604125976562,4.732549331143498,3.5815935816466804,1.0654122861154376
1718292469535811000,48.59581103515625,5.495383130410313,2.15035198726058,0.5246760909350588
1718292469585581300,48.64558129882813,5.3674581767648455,2.3480624247938393,-1.408655960829556
1718292469635351300,48.69535131835938,1.3525327993303538,1.349865041425824,-1.5080369570359586
1718292469685121300,48.74512133789062,1.5223071821898222,2.9037480960965154,-2.408918460033834
1718292469734891300,48.794891357421875,2.4402082090497017,3.1068191838800905,0.5378241436585783
1718292469784661200,48.8446611328125,0.4806020810067653,4.2644110103905195,0.8877215771734714
1718292469834431200,48.89443115234375,-2.7976164565861223,0.7223105040900408,-2.859033632840216
1718292469884201200,48.944201171875,-4.040373706945776,1.7318232083290814,-2.1022622023522852
1718292469933971200,48.99397119140625,-6.931579716855287,-1.1161590152733027,-0.08205752096176147
1718292469983740400,49.04374047851562,-6.538142709082365,-3.009704086779058,-0.3148635295346379
1718292470033510100,49.09351025390625,-2.4798528216958045,-1.135090948627889,0.06386924558132887
1718292470083280400,49.1432802734375,0.5044423907995224,0.9177199712045491,-0.9774687758550047
1718292470133050000,49.19305004882813,0.15916063438653946,0.18547274112030862,-0.2670430630870163
1718292470182819800,49.24281982421875,-0.31577275333404536,-1.1870993682846427,0.8661791690595447
1718292470232589800,49.29258984375,0.9711106389999389,1.8932444811239837,0.5430841830786317
1718292470282359800,49.34235986328125,-0.8075859641849994,0.29747663366496563,-0.8144272083818912
1718292470332129800,49.3921298828125,-0.4144458935320377,1.1997568975448607,0.3297934241736308
1718292470381899800,49.44189965820313,0.4440478355914354,0.778923348802328,0.7257019731592387
1718292470431669800,49.49166967773437,1.1194915206968783,0.8365192132025957,0.6621098640188574
1718292470481439700,49.54143969726562,1.6796972997725008,0.18417407961189747,0.7173649374466389
1718292470531209700,49.591209716796875,1.7977905952334403,0.9270599003493786,0.4239771439978853
1718292470580979700,49.64097973632813,0.9641372928559779,-0.33240532370507714,-0.112164709129557
1718292470630749700,49.69074975585937,-1.8197768015921114,-1.1681897928923368,-0.02325350461443886
1718292470680519000,49.74051879882813,2.12799051784873,1.3627689466625452,-0.6257439807824791
1718292470730288600,49.79028857421875,-0.10126023408174514,-0.040160745474696155,0.027072359649697317
1718292470780059000,49.84005883789062,-0.16499474736750125,0.7793518033474683,0.4521974589731544
1718292470829828900,49.889828857421875,-1.0317629683613776,-0.7390116096526383,0.3968501041520387
1718292470879598800,49.93959887695313,-1.5572990005940197,-1.0752414600819349,1.4534087102696298
1718292470929368800,49.98936889648437,0.8280705338090658,0.6387479853928089,0.9060686233121901
1718292470979138800,50.039138916015624,0.2727332375526428,0.430243766644597,0.3333047567628324
1718292471028908800,50.08890869140625,-0.9321066623449324,-0.44588966406583785,0.6422302745506167
1718292471078678800,50.1386787109375,-0.8436819444388151,-1.7688064928114413,0.4504584332861006
1718292471128448800,50.18844873046875,0.6673702687650919,-0.13912380852997303,0.3772423538951203
1718292471178219000,50.238218994140624,-0.6873235079914332,-0.898248231884837,0.05653104818034917
1718292471227989000,50.287989013671876,0.9053665394574403,-0.015482231292128562,-0.12913860375154762
1718292471277758200,50.33775830078125,-0.13985855254530905,-0.7104933711767196,-0.44754853718876836
1718292471327528000,50.38752783203125,0.48840603275597094,-2.1740829914599655,0.5616575122538954
1718292471377298200,50.43729809570313,0.38124738828539845,10.252693977844714,-0.8626363818861543
1718292471427068000,50.48706787109375,-2.3144939171910286,-5.831606551098823,-1.3406407014846802
1718292471476838100,50.536838134765624,0.24569968467652797,0.0007306523621082306,-1.8899425169691442
1718292471526608000,50.58660791015625,2.085533770391345,-1.9380553904920814,0.0489621838286519
1718292471576378000,50.63637817382813,-7.484451499781012,-5.104569456878304,-0.8335587559618055
1718292471626148000,50.68614819335937,15.522446398139,19.978626181054114,-3.1511388025999065
1718292471675918000,50.73591796875,3.689639530345797,-1.3238567399442196,3.5319881314784287
1718292471725688000,50.78568798828125,-1.9943828423917291,-3.3372166700065136,-3.241913883024454
1718292471775458000,50.8354580078125,-1.7663240283459425,-2.401918518143892,-1.660254348155856
1718292471825228000,50.88522802734375,0.9836977333724498,1.3617314203083515,0.427643082626909
1718292471874997200,50.93499731445313,0.7943892134815455,0.1162502979427576,0.9049963909707963
1718292471924767000,50.98476708984375,0.7381640529125928,1.8193068459928035,-3.3479122515439985
1718292471974537200,51.034537109375,2.4170827695280312,1.2601315790086984,-0.7465227890003472
1718292472024307000,51.084306884765624,1.958425978347659,0.07429039409160614,-0.7011359794404357
1718292472074077200,51.1340771484375,-1.2525310408771038,0.7798264351218939,-1.2182708977483212
1718292472123847000,51.18384692382813,-0.9373439784765243,-0.08487257838249206,-0.34118425796627994
1718292472173617200,51.2336171875,-0.5047890122801065,0.6388432624608278,-0.21221534822583196
1718292472223387100,51.28338720703125,-2.4591589932352305,-0.6930746188640594,-0.4682740394292399
1718292472273157000,51.3331572265625,-1.6844412794291972,-1.059590301963687,1.4736344828270376
1718292472322927400,51.38292724609375,1.9899059892386197,1.8725719877123832,1.1178997945260256
1718292472372697000,51.43269702148437,1.8071604811251163,4.0201334674716,0.17759870154326782
1718292472422466300,51.48246630859375,0.4672118535578251,1.6488146702528,-0.17511543336017057
1718292472472236000,51.53223608398437,-0.3887497267395258,-0.866746593683958,0.8237561046760529
1718292472522006300,51.58200634765625,-1.6196043578594923,-1.7017331904917954,1.723481788702309
1718292472571776300,51.6317763671875,1.9137287584871052,0.025631284862756728,0.7978759596187621
1718292472621546200,51.68154614257813,4.347513656491041,5.393971505159139,0.0492885479724966
1718292472671316200,51.73131616210937,1.9280787708789109,3.110014765051007,1.2657429891496896
1718292472721086200,51.781086181640624,1.3360013512462376,2.0869328235343096,0.2084666632167995
1718292472770856200,51.830856201171876,-3.478295704257488,1.0080576831251382,0.9820633371036499
1718292472820626200,51.88062622070313,-3.4171307491987943,0.1630751774817705,0.5081628726273775
1718292472870396200,51.93039624023437,-0.3505418688982725,0.9026723319374025,-1.8101767602063714
1718292472920166100,51.980166259765625,-1.6060978105545043,-0.4016801181243732,1.7475898095205424
1718292472969935000,52.02993505859375,-6.056739833086729,-1.775182603714615,-1.1097248905725776
1718292473019705300,52.079705322265625,-7.191044307512044,-3.120763245819509,-0.0010540390975773335
1718292473069475000,52.12947509765625,-8.47484726948738,-1.3055233570046723,-0.999087317945063
1718292473119245300,52.17924536132813,0.2832639839172363,-1.1259113246113062,-1.3860180125638841
1718292473169015300,52.22901538085937,1.1867056927919386,2.2152537907600403,-0.4770457036994397
1718292473218784300,52.2787841796875,-0.11780161903798579,2.8788053780198095,2.4037585930526255
1718292473268554200,52.32855419921875,0.7127040329635143,3.3334809906095266,-0.025778767042048276
1718292473318324200,52.37832421875,4.664934761554003,2.735557183036208,-0.9023997255410998
1718292473368094200,52.42809423828125,3.9084751734942196,-0.1029962640941143,0.6755188692335039
1718292473417864400,52.47786450195313,3.7231981010764836,1.8832500335931777,-1.8323713486187159
1718292473467633200,52.527633056640624,0.14126608125567436,0.03637947337031364,-1.485270121693611
1718292473517403400,52.5774033203125,5.038895499962568,4.135865879020095,-0.601848579801619
1718292473567173000,52.62717309570313,3.935401174342632,6.07331687387824,-1.8899353565759955
1718292473616943400,52.676943359375,-7.379330498617887,-0.008083060951530933,-0.9520675003558396
1718292473666713300,52.72671337890625,0.21097090112268924,3.0561297378674146,0.038760231027007104
1718292473716483300,52.7764833984375,-1.1441431468725203,0.48027887693438676,-4.204498978002369
1718292473766253300,52.82625341796875,-2.7523464052736757,-1.0494389103055,0.6552148438081145
1718292473816023300,52.87602319335937,-3.5236464195907113,-0.3928940600026399,-2.199705800755322
1718292473865793300,52.925793212890625,-11.1277080491364,-4.438148451662063,-2.664545079962909
1718292473915563300,52.97556323242188,-2.3600492151856423,-1.6134240617893636,-0.9532023496046662
1718292473965333200,53.02533325195313,2.1735200968801975,1.1622861218065024,-1.9873430068828164
1718292474015103200,53.07510327148437,1.9887749393820762,6.252664556246995,-0.9765141054786741
1718292474064872200,53.1248720703125,3.750888072034716,3.9138042595624922,-2.348246403058618
1718292474114642400,53.17464233398437,2.1503806288331746,2.168226666647196,0.5749048971660435
1718292474164412200,53.224412109375,4.339859342345595,0.2525146253883839,1.0561256945930422
1718292474214183200,53.27418310546875,3.569263676905632,1.5431535708636044,0.1596180227652192
1718292474263953000,53.32395288085937,-0.6354781699419021,1.4440209964603186,-1.8501399372823535
1718292474313723100,53.37372314453125,3.7623815259516236,2.930959343627095,-1.5904126040361821
1718292474363492900,53.42349291992188,-0.47091187711954113,1.7504267865121363,-0.9231941648319363
1718292474413263000,53.47326318359375,1.0273474900066852,4.725320548933744,0.1978098062545061
1718292474463033000,53.523033203125,-2.6245032846927643,0.5036275672852992,-0.5787494437649846
1718292474512803000,53.572802978515625,0.07752396918535231,3.3770568052247163,-2.1152482329145075
1718292474562572000,53.62257202148437,-6.206779587906599,-0.7173176642388105,-1.4903960864052175
1718292474612342000,53.672342041015625,-8.25369808869958,-3.0156086346477267,0.7168631984695791
1718292474662112000,53.72211206054688,-7.6916054729640475,-2.2893232355773447,-0.7228074938267469
1718292474711882200,53.77188232421875,-5.199686950421333,-1.6925576581284403,0.8623217629790305
1718292474761652000,53.82165185546875,-0.47472062175273894,-1.5685317577481268,-0.47071927715688944
1718292474811422200,53.871422119140625,1.21760644249022,2.596533327749371,-0.6205264653299003
1718292474861192000,53.92119189453125,2.9640999812066555,3.88286785402894,-2.001041131237149
1718292474910962200,53.97096215820312,3.943414969450235,3.0073493403464555,0.2940112956419587
1718292474960732000,54.02073193359375,5.311095069029927,2.798368151736259,1.1236305932629853
1718292475010502100,54.070502197265625,2.5857927380263805,1.3691308829098938,0.006854907396063208
1718292475060271000,54.12027099609375,1.4556003750950097,1.0621481697529553,-0.8174944139327853
1718292475110041000,54.170041015625,2.557340550523996,2.145961643347144,-3.1536762121230364
1718292475159811000,54.21981103515625,1.6834247958630322,2.696865925592184,-0.27987741021886464
1718292475209580800,54.26958081054688,1.3611340389370918,2.7379718429625033,0.9596825054042041
1718292475259350800,54.31935083007812,0.5538648856163024,3.655182257209718,-0.259273159737885
1718292475309120800,54.369120849609374,-3.0284114175975323,1.6119384994067252,-3.8714533105671403
1718292475358890800,54.418890869140625,-4.530996246707439,0.9376367508780211,-1.0853200787648558
1718292475408661000,54.46866088867188,-9.58262438699305,-2.912851440006494,-0.9255553410053252
1718292475458430700,54.5184306640625,-7.109227025046944,-3.1598826655477286,-0.2851478979676962
1718292475508201000,54.568200927734374,-4.474893251213431,-2.7235826676040884,-0.04746668457388878
1718292475557970000,54.61796997070312,-1.8995318908303975,1.2903653892308473,-2.243287460589409
1718292475607740000,54.667739990234374,-1.2838707665145397,1.4300480006873606,-3.402091293238103
1718292475657510000,54.717510009765626,0.841224029892683,3.2887153816878794,-1.2770175396189092
1718292475707280000,54.76727978515625,3.8228789570122954,3.314290552449226,-0.006579743716493248
1718292475757049900,54.8170498046875,5.9084027905315155,5.164124638652801,0.2272126820778474
1718292475806819800,54.86681982421875,4.471919788360595,1.0187561872720718,0.44422008688580245
1718292475856589800,54.91658984375,-0.2387140635728836,-0.36889410266876216,-0.036775340820103884
1718292475906359800,54.96635986328125,0.7922276515334844,0.6845370921432972,-1.2177562992896884
1718292475956129800,55.0161298828125,3.9564077220141884,4.111626925298571,0.2385014437355101
1718292476005900000,55.065900146484374,3.985823786112666,4.764314296455681,0.00449190459176898
1718292476055668700,55.11566870117188,-3.9390538516312836,2.741402401933074,3.034407443141937
1718292476105439000,55.16543896484375,-3.9850411113023756,-0.041253655277937645,-2.561440387058258
1718292476155208700,55.215208740234374,-4.8542181470036505,0.7621262355193495,-0.8244462058320641
1718292476204978400,55.264978515625,-7.208782208776474,-3.615998832334578,-0.9443407054960727
1718292476254748400,55.31474853515625,-5.368914220792055,-4.073312099951505,-0.22775500879362223
1718292476304518400,55.36451831054688,-3.7574604361623525,-1.5299749403387308,1.105651065262407
1718292476354288400,55.41428833007812,-1.6927262926936149,1.2550982610166073,0.9971269776575267
1718292476404058400,55.464058349609374,-1.4035340877711773,0.4857850366026163,-1.861845864906162
1718292476453828400,55.513828369140626,3.4788638595342634,4.627069433540106,1.984218883512914
1718292476503597600,55.56359765625,5.621699479815364,2.7323201008111235,2.0631600260198115
1718292476553367300,55.6133671875,5.190334600186348,3.9756899301111694,-0.3777957865267992
1718292476603137500,55.66313745117188,3.5430180595368146,0.5291425322920084,-0.6222351689439266
1718292476652907300,55.7129072265625,0.4912076461732387,-0.10945113932192325,-0.07116382303629071
1718292476702677500,55.762677490234374,4.639685169485211,2.9270886396735905,-1.5896464419692753
1718292476752447500,55.812447509765626,2.562245858222246,4.409178377765417,-0.47717283721044657
1718292476802217500,55.86221752929688,-1.6977520119011402,2.8051901067107914,1.3921410254888236
1718292476851987500,55.91198754882812,-1.143819321745634,1.5267944106064737,-2.1217267812788485
1718292476901757400,55.96175732421875,-5.125126507216692,0.7532470557540655,-2.8229417442396283
1718292476951526400,56.0115263671875,-4.656387882483005,-3.469646241594851,-1.4165426224261521
1718292477001296600,56.061296630859374,-6.813666454136372,-3.146533354631066,-1.7795839074134825
1718292477051066400,56.11106640625,-5.815024834132195,-1.805262538549304,-2.6819901357606053
1718292477100836600,56.16083666992188,-2.9265520485788583,-1.3435200563132763,-4.223793461059033
1718292477150606300,56.2106064453125,-1.2832839065372943,1.8747165985256433,-3.949090676999092
1718292477200377000,56.260377197265626,3.946206645995378,7.285593061256408,-0.4909539636731147
1718292477250146800,56.310146728515626,5.5870081056624645,5.8124967769593,0.4806808453314006
1718292477299917000,56.3599169921875,7.757589811003208,4.8322833785712715,-1.0103894140083343
1718292477349686800,56.40968676757812,0.2649596809417009,-2.4518600683987137,-0.7030803915064782
1718292477399456000,56.4594560546875,0.13868190998136998,0.059682023024559015,-1.6630159218236804
1718292477449226000,56.50922607421875,5.697763897842169,5.414160891228914,-0.8010754132471978
1718292477498996000,56.558995849609374,2.573900055658817,5.368012888038158,-1.0760479541592298
1718292477548766000,56.608765869140626,-1.0071522587180137,3.7211239251509305,-0.7466521875336766
1718292477598536000,56.65853588867188,-3.564326220503449,1.835431905233115,-2.1935504929959775
1718292477648306000,56.70830590820312,-7.321779057881236,-0.679263608719781,-2.995611848540604
1718292477698076000,56.758075927734374,-5.662050779426098,-2.228925027107447,-1.5409361870750784
1718292477747846000,56.807845947265626,-9.580704232585429,-3.69508932018429,0.07934358582794666
1718292477797616000,56.8576162109375,-5.251910474133491,-3.0671114428699013,-1.9397695009335874
1718292477847384800,56.907384765625,-4.751207269862294,0.6633288844197988,-1.4116457902953028
1718292477897155000,56.95715502929688,-0.09772153856158255,2.801214773339033,-2.0414106971569357
1718292477946924800,57.0069248046875,4.254497519141435,4.8842175639480345,-0.2714800226211548
1718292477996695000,57.056695068359375,6.347519014939666,4.71708463550806,2.308846851214766
1718292478046465000,57.106465087890626,5.260804559206962,1.1603197901695965,-1.1356535509467125
1718292478096235000,57.15623510742188,2.92727627120018,0.3325514541774988,-0.7430582546949386
1718292478146005000,57.2060048828125,2.6827409541279077,2.6417881814926862,-0.5147992419019342
1718292478195774200,57.25577416992188,1.3317998079031705,3.3358068032085892,-0.9997110028013586
1718292478245543400,57.30554345703125,0.47491994371712204,4.257709759186208,0.21154022544324397
1718292478295313400,57.3553134765625,-0.29506548087000845,1.4573913501650093,0.312800751785934
1718292478345083400,57.40508349609375,-2.7563082946419715,1.4068353212736546,-0.9338052829563617
1718292478394853400,57.454853271484374,-5.646836843681335,0.5577392793642356,-3.4605183477655053
1718292478444623400,57.504623291015626,-9.67886007091105,-3.2485072899401186,-1.1443208415269852
1718292478494393300,57.55439331054688,-1.9808698653459549,-2.567960144215822,-0.642906858637929
1718292478544163600,57.60416357421875,-1.1794319023966788,0.7590937359556555,-1.403504861676693
1718292478593933300,57.653933349609375,0.8333645485639571,0.035258506516367194,-1.5674275958985089
1718292478643702500,57.70370263671875,-1.3590788599729537,0.6185410636663436,-1.3796693741895258
1718292478693472500,57.753472412109375,3.5230034455120562,0.39879911932796236,0.44180663253590463
1718292478743242500,57.803242431640626,1.5507774898707867,0.022810382223129273,-0.2204914475314319
1718292478793012500,57.85301245117188,-2.8639415708869693,0.7470584302470088,-1.579477222393453
1718292478842782500,57.90278247070312,2.5778607759833334,0.855330881178379,-0.11425773588605224
1718292478892552400,57.952552490234375,1.8189818518221377,2.5716432166427374,0.5843883995000273
1718292478942322400,58.00232250976563,-2.9370290189296004,1.036760630518198,-0.7574217841554433
1718292478992092400,58.05209252929688,-1.4115420376598835,-2.9876959608495235,0.14693020796459166
1718292479041862400,58.1018623046875,2.05329738817513,0.5792804819017648,1.1288653521113097
1718292479091631400,58.15163134765625,5.281762007039785,6.590630436688661,-0.8465155604295432
1718292479141401600,58.20140161132812,-1.0660732342422008,0.43648353781700133,0.5275166481232271
1718292479191171800,58.251171875,-3.003459931692481,-2.9002374576270578,-1.5149297852896153
1718292479240942000,58.30094213867188,-0.5503863958507776,-2.5879274119675157,-0.6753652130417526
1718292479290711800,58.3507119140625,3.938473421394825,3.905470146459341,1.1979594927340744
1718292479340482000,58.40048193359375,-3.3360207382202147,-1.3362795836657284,0.7074309148661792
1718292479390251800,58.450251708984375,0.824330762758851,1.251319911521673,0.62935559540838
1718292479440022000,58.50002197265625,-0.5398498042672872,-0.3350742506533861,0.7531374578997493
1718292479489791000,58.549791015625,3.3676685068935153,0.7454886967122555,-0.21629932960383594
1718292479539561000,58.59956103515625,-1.9769997459143398,0.8561497963458299,-1.188022766739875
1718292479589331000,58.6493310546875,-1.4255980355411768,-0.31428806773424145,-0.17933365384340286
1718292479639101000,58.69910083007812,-2.5397061096340416,-2.123883082529902,-0.5766913787240162
1718292479688871000,58.748870849609375,1.678212614172697,1.6828683310240506,0.11378756109103559
1718292479738641000,58.79864086914063,5.127962022903561,2.9200591794282196,0.12816325591336936
1718292479788411000,58.84841088867187,-0.47305824149847026,2.163488532209396,0.5523677789263427
1718292479838181000,58.89818115234375,-1.9488123468279837,-1.371154497691989,-1.5583042321138083
1718292479887949800,58.94794970703125,-0.4860422262340784,-0.6014841304033994,0.9597261984154581
1718292479937719800,58.9977197265625,-1.969799020755291,-2.167222458040714,0.19373999953232704
1718292479987490000,59.047489990234375,3.3906811336904763,4.396473794493079,-0.35495661660060285
1718292480037259800,59.097259765625,-0.08943301816582679,0.7819850744605064,-0.5320380710704252
1718292480087030000,59.14703002929687,-0.7686948002547025,-1.8310855465918778,-0.08988781272862106
1718292480136799700,59.1967998046875,-2.8356460352510213,-2.1664444594055414,0.0500493762771599
1718292480186569200,59.2465693359375,2.2401994314461944,1.5370283659815787,0.6349759195081889
1718292480236338200,59.29633813476563,0.261009482011199,1.4558528885513544,-0.19130363923087715
1718292480286108000,59.34610791015625,0.891672360625863,0.2488479195743799,0.07758289629835635
1718292480335878100,59.39587817382812,1.0629980645805597,0.896817906820774,0.27943330144686623
1718292480385648000,59.445648193359375,-1.1455138507038354,-3.374446622726321,0.40834425218868997
1718292480435418000,59.49541821289063,-1.091073235464096,2.0376614276260137,-0.08823237367179244
1718292480485188000,59.54518798828125,-3.7702971213817595,-1.8413322153180836,1.2367840211689471
1718292480534958000,59.5949580078125,4.9856356189399955,3.8399411509722468,-2.010328599542379
1718292480584728000,59.64472802734375,-1.7630764247268438,-1.3164847498714922,0.517613714800775
1718292480634497300,59.69449731445312,3.4188276162445543,2.6858202154427766,-0.7322885850079357
1718292480684267000,59.74426708984375,-2.236576564773917,-0.5122551103770733,0.8900307308986782
1718292480734037200,59.79403735351563,-0.6562538314670324,-0.3153635880112648,-0.2520797593687661
1718292480783807000,59.84380688476563,-0.7566407898455858,0.27992051870822904,1.3401539408810437
1718292480833577200,59.8935771484375,0.818403710797429,-0.9794102653115987,0.3217008647413924
1718292480883347000,59.94334692382812,0.14277005607783794,-0.8923597583681344,-0.5924901286194101
1718292480933117200,59.9931171875,2.3026737155377863,3.8643531231731174,-0.30558773340089246
1718292480982886100,60.04288623046875,-2.4856097777873276,-1.6004869849354029,-0.26665227367114275
1718292481032656100,60.09265625,-1.1859241870254278,0.16244623192846774,0.7550595120035112
1718292481082426000,60.14242602539063,-1.9436124400973318,-2.2847522743999957,-0.2113102891448885
1718292481132196000,60.19219604492187,4.562465736204386,0.3188344789922237,1.395815183956921
1718292481181966600,60.241966552734375,-0.6536001020878554,0.24150749368369578,-2.3427529202088713
1718292481231736300,60.291736328125,0.7396873169571161,2.3891987373024226,-0.015169859141018241
1718292481281506600,60.34150659179687,-0.6498270132899284,-0.40872050162255763,1.034870140596479
1718292481331276500,60.391276611328124,-0.5606774882405996,-2.0051327844649554,-0.5296145337179303
1718292481381045200,60.44104516601563,1.0481599764108658,0.023864275190234183,0.18055713122375308
1718292481430815500,60.4908154296875,3.932890652826428,2.5448148309499024,-0.18956081415154039
1718292481480585200,60.54058520507812,2.084177679607272,1.9674194321423768,-0.05596117587052285
1718292481530355500,60.59035546875,3.058894818666577,6.028740065526962,-0.42732846371978517
1718292481580125400,60.64012548828125,-1.4073656287580727,0.011637830823659896,-0.08821209806874394
1718292481629895400,60.6898955078125,0.877379046857357,2.281263847762346,-0.031099341010302303
1718292481679665400,60.73966552734375,-0.7980757930397987,2.885020307011902,-0.6825470873698591
1718292481729434400,60.78943432617187,-0.8463596392154693,0.532153404545784,-1.4702189752951265
1718292481779204400,60.83920434570312,-3.348427799850702,-0.5937612810663878,-0.987583927156031
1718292481828974600,60.888974609375,-11.095803675353526,-3.9196410028919577,-2.006414348708093
1718292481878744300,60.93874438476563,-8.273832529711722,-2.895988568010926,-0.4696154075682163
1718292481928514600,60.9885146484375,-4.8496121145129205,-1.4481371996074914,-1.6431436388790606
1718292481978284300,61.0382841796875,4.592856198292971,0.1697963024303317,-1.498549289983511
1718292482028054500,61.088054443359376,-0.3694301092416048,6.327287543293833,0.2536578040741384
1718292482077823500,61.137823486328124,1.298340605893731,1.9676058946251869,3.368624492444098
1718292482127593500,61.187593505859375,6.348751187083125,6.083076635870337,-2.6960622079938648
1718292482177363500,61.23736352539063,-1.2351374230057,-4.975436296486854,1.7962471651837228
1718292482227134000,61.287134033203124,10.630253033006191,10.083943677335977,-0.5362581364508718
1718292482276904000,61.336904052734376,-4.330889853948355,-2.272991109457612,0.6659845865603536
1718292482326674000,61.386673828125,6.060175652754307,8.93280029631257,-5.413225656205415
1718292482376444000,61.43644384765625,2.789679818367958,3.4459184522658584,0.1543921048104763
1718292482426214000,61.4862138671875,0.1813268734872341,-0.7407207516580819,1.110849656818807
1718292482475982800,61.53598291015625,2.12860601939857,5.574171420443058,-2.2202774641409513
1718292482525753000,61.585753173828124,-8.169571360248327,0.32186255810912695,-2.67975229370594
1718292482575522800,61.635522705078124,-10.3914033603549,-3.5837791089922186,-0.2124403891533613
1718292482625293000,61.68529296875,-11.32873681743741,-3.6816307036742564,-2.1400936280965803
1718292482675062800,61.73506274414063,2.755438526070118,0.3184077780127525,-1.17958826200217
1718292482724833000,61.7848330078125,-3.065526804026961,2.0491236096218226,-3.79717109978199
