time,seconds_elapsed,z,y,x
1718292420988100900,0.048100830078125,-0.960174560546875,-0.221466064453125,-0.165802001953125
1718292421037871900,0.097871826171875,-0.935546875,-0.2559967041015625,-0.1854095458984375
1718292421087643000,0.147642822265625,-0.9443206787109375,-0.243255615234375,-0.1736297607421875
1718292421137415200,0.197415283203125,-0.9771728515625,-0.2351531982421875,-0.1637420654296875
1718292421187186200,0.247186279296875,-0.9641571044921875,-0.24676513671875,-0.170501708984375
1718292421236957200,0.296957275390625,-0.968902587890625,-0.2374267578125,-0.16680908203125
1718292421286728200,0.346728271484375,-0.880035400390625,-0.2515716552734375,-0.170135498046875
1718292421336500200,0.396500244140625,-0.9722442626953125,-0.2462615966796875,-0.180816650390625
1718292421386271200,0.446271240234375,-0.963653564453125,-0.249725341796875,-0.1623077392578125
1718292421436042000,0.4960419921875,-0.9402618408203125,-0.2388916015625,-0.161376953125
1718292421485813200,0.545813232421875,-0.9519195556640625,-0.2582855224609375,-0.186248779296875
1718292421535584300,0.595584228515625,-0.9498443603515625,-0.25115966796875,-0.1689605712890625
1718292421585356300,0.645356201171875,-0.9325714111328125,-0.2509918212890625,-0.1601104736328125
1718292421635127000,0.695126953125,-0.960235595703125,-0.2541961669921875,-0.170440673828125
1718292421684898000,0.74489794921875,-0.9625091552734375,-0.2558441162109375,-0.1677093505859375
1718292421734669300,0.79466943359375,-0.95355224609375,-0.2762298583984375,-0.195068359375
1718292421784440300,0.8444404296875,-0.998199462890625,-0.281036376953125,-0.1905975341796875
1718292421834212000,0.894212158203125,-1.0642547607421875,-0.3159332275390625,-0.1983489990234375
1718292421883983000,0.943983154296875,-0.9497222900390625,-0.3405914306640625,-0.1432342529296875
1718292421933754000,0.993754150390625,-0.986968994140625,-0.3415985107421875,-0.1378326416015625
1718292421987258000,1.047258056640625,-0.8668060302734375,-0.40093994140625,-0.153564453125
1718292422037030100,1.097030029296875,-0.692413330078125,-0.4565582275390625,0.055328369140625
1718292422086801400,1.146801513671875,-0.7228240966796875,-0.436767578125,-0.14215087890625
1718292422136572200,1.196572265625,-0.769622802734375,-0.5085601806640625,-0.1634521484375
1718292422186343200,1.24634326171875,-0.83734130859375,-0.5027008056640625,-0.046600341796875
1718292422236114200,1.2961142578125,-0.8213958740234375,-0.534027099609375,-0.0724639892578125
1718292422285886200,1.34588623046875,-0.8435821533203125,-0.54974365234375,-0.1414947509765625
1718292422335657200,1.3956572265625,-0.7388458251953125,-0.5187835693359375,-0.1018218994140625
1718292422385428200,1.44542822265625,-0.8250885009765625,-0.50311279296875,-0.076385498046875
1718292422435199200,1.49519921875,-0.8875579833984375,-0.4738922119140625,-0.08038330078125
1718292422484970000,1.544969970703125,-0.8701019287109375,-0.46649169921875,-0.0507659912109375
1718292422534741200,1.5947412109375,-1.0665740966796875,-0.42047119140625,0.0157928466796875
1718292422584513300,1.64451318359375,-0.9737548828125,-0.450439453125,-0.054931640625
1718292422634284300,1.6942841796875,-0.9420623779296875,-0.418731689453125,-0.01141357421875
1718292422684055000,1.744054931640625,-0.831756591796875,-0.49493408203125,-0.1318359375
1718292422733826000,1.793825927734375,-0.880615234375,-0.438873291015625,-0.118682861328125
1718292422783597300,1.843597412109375,-0.8383026123046875,-0.4351806640625,-0.104217529296875
1718292422833369300,1.893369384765625,-0.9064788818359375,-0.392791748046875,-0.081146240234375
1718292422883140000,1.94314013671875,-0.7571868896484375,-0.444061279296875,-0.1138763427734375
1718292422932911000,1.9929111328125,-0.82965087890625,-0.410736083984375,-0.0529022216796875
1718292422982682000,2.04268212890625,-0.7164154052734375,-0.4612579345703125,-0.1410675048828125
1718292423032453400,2.092453369140625,-0.9464263916015625,-0.3630828857421875,-0.03662109375
1718292423102133200,2.16213330078125,-0.963592529296875,-0.399078369140625,-0.1280975341796875
1718292423151903500,2.211903564453125,-0.9801788330078125,-0.35577392578125,-0.161407470703125
1718292423201674200,2.26167431640625,-0.691925048828125,-0.327606201171875,-0.143951416015625
1718292423251445200,2.3114453125,-0.7746734619140625,-0.2768707275390625,-0.23492431640625
1718292423301217300,2.36121728515625,-0.8721160888671875,-0.30035400390625,-0.1807403564453125
1718292423350988300,2.41098828125,-1.13861083984375,-0.3195343017578125,-0.153778076171875
1718292423400759300,2.46075927734375,-1.09783935546875,-0.2695770263671875,-0.1159820556640625
1718292423450530300,2.5105302734375,-1.198333740234375,-0.1102142333984375,-0.0592803955078125
1718292423500301300,2.56030126953125,-0.966583251953125,-0.0298004150390625,0.0042572021484375
1718292423550072300,2.610072265625,-0.9667205810546875,0.0175018310546875,0.008453369140625
1718292423599844000,2.659843994140625,-0.8233184814453125,-0.0225982666015625,-0.066162109375
1718292423649615400,2.709615478515625,-0.9437408447265625,-0.014373779296875,-0.1484832763671875
1718292423699386400,2.759386474609375,-0.8525390625,0.0226593017578125,-0.2070159912109375
1718292423749157000,2.8091572265625,-0.858245849609375,0.044921875,-0.222808837890625
1718292423798928400,2.858928466796875,-1.20867919921875,-0.0484161376953125,-0.328948974609375
1718292423848699400,2.908699462890625,-0.96484375,-0.0473175048828125,-0.180633544921875
1718292423898471400,2.958471435546875,-1.02996826171875,0.173828125,-0.1397857666015625
1718292423948242200,3.0082421875,-0.783599853515625,0.3743133544921875,-0.2037811279296875
1718292423998013200,3.05801318359375,-0.54339599609375,0.49456787109375,-0.236785888671875
1718292424047784400,3.107784423828125,-0.3380279541015625,0.582855224609375,-0.7046661376953125
1718292424097555500,3.157555419921875,-0.3316650390625,0.803192138671875,-0.60394287109375
1718292424147328000,3.207327880859375,-0.745391845703125,0.7651519775390625,-0.9483795166015625
1718292424197099000,3.25709912109375,-1.0297088623046875,0.8288116455078125,-0.8029022216796875
1718292424246870000,3.3068701171875,-0.7595672607421875,0.83819580078125,-0.645721435546875
1718292424296640800,3.356640869140625,-0.38433837890625,0.6848297119140625,-0.73968505859375
1718292424346412000,3.406412109375,0.2733612060546875,0.0097808837890625,-1.725555419921875
1718292424396184000,3.45618408203125,-0.21234130859375,1.0958709716796875,-1.14434814453125
1718292424445955000,3.505955078125,0.2399749755859375,0.93682861328125,-1.9168243408203125
1718292424495725800,3.555725830078125,-0.9226531982421875,1.207794189453125,0.3538665771484375
1718292424545496800,3.605496826171875,0.20135498046875,0.7056427001953125,0.0194091796875
1718292424595268000,3.65526806640625,0.318145751953125,0.2845458984375,-0.4747772216796875
1718292424645040000,3.7050400390625,0.0366363525390625,0.63037109375,-0.4868621826171875
1718292424694811000,3.754810791015625,-0.217376708984375,0.4750213623046875,-1.23101806640625
1718292424744582000,3.804581787109375,-0.1785736083984375,1.1030120849609375,-1.0485687255859375
1718292424794353000,3.854352783203125,-0.04119873046875,0.9329071044921875,-1.138641357421875
1718292424844124200,3.904124267578125,-0.2319488525390625,0.4886474609375,-0.906524658203125
1718292424893896000,3.95389599609375,-0.1353607177734375,0.464935302734375,-0.6833038330078125
1718292424943667000,4.0036669921875,0.0904083251953125,0.8804931640625,-0.8990020751953125
1718292424993438000,4.05343798828125,0.070831298828125,0.516815185546875,-0.7195892333984375
1718292425043209000,4.103208984375,0.033721923828125,0.3572998046875,-0.62872314453125
1718292425092980700,4.152980712890625,-0.3226165771484375,0.5972442626953125,0.0204315185546875
1718292425142751500,4.20275146484375,0.21234130859375,1.170135498046875,-1.455291748046875
1718292425192522500,4.2525224609375,-0.063323974609375,1.4180450439453125,-0.3044586181640625
1718292425242293200,4.302293212890625,0.08056640625,1.286529541015625,-0.531280517578125
1718292425292064500,4.352064453125,-0.026031494140625,0.686431884765625,-0.879669189453125
1718292425341836500,4.40183642578125,0.052764892578125,0.7281341552734375,-0.2912750244140625
1718292425391607600,4.451607666015625,-0.1156005859375,0.8014678955078125,-0.5309600830078125
1718292425441378300,4.50137841796875,-0.040069580078125,0.843048095703125,-0.4219970703125
1718292425491149300,4.5511494140625,-0.0390472412109375,0.8476104736328125,-0.3322601318359375
1718292425540921300,4.60092138671875,-0.07562255859375,1.1136932373046875,-0.6296539306640625
1718292425590692600,4.650692626953125,-0.039031982421875,1.107330322265625,-0.3246307373046875
1718292425640463600,4.700463623046875,-0.0842742919921875,1.013702392578125,-0.134979248046875
1718292425690234400,4.750234375,-0.0010223388671875,1.052337646484375,-0.1573944091796875
1718292425740005400,4.80000537109375,-0.0669097900390625,1.1795196533203125,-0.137786865234375
1718292425789777400,4.84977734375,0.048126220703125,1.100799560546875,0.05914306640625
1718292425839548700,4.899548583984375,0.0525665283203125,0.54937744140625,-0.3731842041015625
1718292425889319400,4.9493193359375,-0.180908203125,1.03173828125,-0.3041229248046875
1718292425939090400,4.99909033203125,-0.0645751953125,0.8423004150390625,-0.34417724609375
1718292425988862500,5.048862548828125,-0.04705810546875,1.1695098876953125,-0.417816162109375
1718292426038633500,5.098633544921875,-0.0385284423828125,1.217681884765625,-0.2322235107421875
1718292426088404500,5.148404541015625,0.0491790771484375,0.977783203125,0.33807373046875
1718292426138176000,5.198176025390625,0.0110321044921875,1.2395172119140625,0.2361602783203125
1718292426187948000,5.247947998046875,-0.2690582275390625,0.497344970703125,-0.2362213134765625
1718292426237719000,5.297718994140625,-0.021636962890625,0.9912567138671875,-0.105224609375
1718292426287490000,5.347489990234375,-0.0220184326171875,1.035980224609375,-0.3900604248046875
1718292426337261000,5.397260986328125,-0.0997161865234375,0.68096923828125,-0.2680816650390625
1718292426387033000,5.447033203125,-0.157562255859375,1.383209228515625,-0.1734619140625
1718292426436804000,5.49680419921875,-0.222320556640625,0.8544769287109375,0.146514892578125
1718292426486575000,5.5465751953125,-0.0387725830078125,1.0561370849609375,0.2851409912109375
1718292426536345900,5.596345947265625,-0.033660888671875,0.9387664794921875,0.042510986328125
1718292426586118000,5.646117919921875,0.020294189453125,0.7724609375,-0.4170074462890625
1718292426635889200,5.69588916015625,-0.0179901123046875,1.1284637451171875,-0.2506561279296875
1718292426685660200,5.74566015625,-0.063018798828125,0.9947967529296875,-0.04376220703125
1718292426735431000,5.795430908203125,-0.10797119140625,0.94146728515625,-0.0891265869140625
1718292426785203000,5.845202880859375,-0.109283447265625,0.944549560546875,-0.1723175048828125
1718292426834974000,5.894973876953125,-0.170562744140625,0.99139404296875,-0.211029052734375
1718292426884745200,5.9447451171875,0.00897216796875,1.0755767822265625,-0.0980987548828125
1718292426934517200,5.994517333984375,0.0848541259765625,1.0026092529296875,-0.0508575439453125
1718292426984288000,6.0442880859375,-0.2095947265625,0.9610595703125,-0.2284393310546875
1718292427034059000,6.09405908203125,-0.0977935791015625,0.9840087890625,-0.2608795166015625
1718292427083831000,6.1438310546875,-0.060943603515625,0.9976959228515625,-0.1704864501953125
1718292427133602300,6.193602294921875,-0.0442352294921875,0.974578857421875,-0.1105804443359375
1718292427183373300,6.243373291015625,-0.0468597412109375,0.983551025390625,-0.1343536376953125
1718292427233144300,6.293144287109375,-0.051483154296875,0.9806671142578125,-0.2283935546875
1718292427282916400,6.342916259765625,-0.0735015869140625,0.98834228515625,-0.1861419677734375
1718292427332687400,6.392687255859375,-0.0105133056640625,0.978790283203125,-0.124267578125
1718292427382458000,6.4424580078125,0.0083770751953125,1.0002288818359375,-0.0979766845703125
1718292427432230100,6.492230224609375,0.006134033203125,1.0236968994140625,-0.1887359619140625
1718292427482001400,6.54200146484375,-0.0622100830078125,0.9964141845703125,-0.2346343994140625
1718292427531772400,6.5917724609375,0.0231170654296875,0.9996185302734375,-0.2048492431640625
1718292427581544400,6.64154443359375,-0.0459747314453125,1.038482666015625,-0.0727386474609375
1718292427631315200,6.691315185546875,-0.0177459716796875,0.99224853515625,0.0386962890625
1718292427681086200,6.741086181640625,-0.1645965576171875,1.0059356689453125,0.0139923095703125
1718292427730858200,6.790858154296875,-0.16497802734375,1.07293701171875,0.1524658203125
1718292427780629500,6.84062939453125,-0.1602325439453125,1.0959625244140625,0.1965179443359375
1718292427830401500,6.890401611328125,0.0075531005859375,1.087249755859375,0.26202392578125
1718292427880172300,6.94017236328125,-0.1157073974609375,0.9917449951171875,0.3981170654296875
1718292427929943300,6.989943359375,-0.239044189453125,0.9696807861328125,0.3025054931640625
1718292427979715300,7.03971533203125,-0.181427001953125,1.0518951416015625,0.2320556640625
1718292428029486300,7.089486328125,-0.22509765625,1.1879730224609375,0.4654998779296875
1718292428079257300,7.13925732421875,0.030517578125,1.154632568359375,0.5213775634765625
1718292428129028900,7.18902880859375,-0.0819854736328125,1.17755126953125,0.557708740234375
1718292428178799600,7.238799560546875,0.2298431396484375,1.1591949462890625,0.30474853515625
1718292428228570600,7.288570556640625,0.3171539306640625,0.9210205078125,0.4416656494140625
1718292428278342700,7.3383427734375,0.40924072265625,0.8146209716796875,0.44036865234375
1718292428328114000,7.388114013671875,0.3319244384765625,0.5540008544921875,0.473724365234375
1718292428377885700,7.4378857421875,0.31622314453125,0.4302520751953125,0.5483245849609375
1718292428427656700,7.48765673828125,0.182403564453125,0.507568359375,0.757568359375
1718292428477427700,7.537427734375,0.1918487548828125,0.360687255859375,0.753875732421875
1718292428527199700,7.58719970703125,0.1805419921875,0.331756591796875,0.6676788330078125
1718292428576970500,7.636970458984375,0.1145782470703125,0.3693389892578125,0.50238037109375
1718292428626742500,7.686742431640625,-0.0218963623046875,0.398651123046875,0.5460205078125
1718292428676513800,7.736513671875,-0.01519775390625,0.5017852783203125,0.48223876953125
1718292428726285800,7.786285888671875,-0.023468017578125,0.7035369873046875,0.594940185546875
1718292428776056800,7.836056884765625,0.0456390380859375,0.833648681640625,0.6701812744140625
1718292428825827600,7.88582763671875,0.084136962890625,0.91424560546875,0.702056884765625
1718292428875599600,7.935599609375,0.1643524169921875,0.9324493408203125,0.7306060791015625
1718292428925370600,7.98537060546875,0.0362091064453125,0.889068603515625,0.7061614990234375
1718292428975142700,8.035142578125,0.0864410400390625,0.797576904296875,0.5516815185546875
1718292429024913700,8.08491357421875,0.1168060302734375,0.716522216796875,0.497650146484375
1718292429074684700,8.1346845703125,0.1886138916015625,0.7952728271484375,0.445587158203125
1718292429124456700,8.184456787109376,0.351104736328125,0.835784912109375,0.445953369140625
1718292429174227200,8.234227294921874,0.3806610107421875,0.8475341796875,0.4061737060546875
1718292429223999200,8.283999267578125,0.4816436767578125,0.8344268798828125,0.3170318603515625
1718292429273770000,8.33377001953125,0.5738677978515625,0.8643035888671875,0.236541748046875
1718292429323542000,8.3835419921875,0.5920257568359375,0.82244873046875,0.1104583740234375
1718292429373313300,8.433313232421876,0.421356201171875,0.8721923828125,0.0916290283203125
1718292429423084300,8.483084228515626,0.50909423828125,0.9676055908203125,0.0775146484375
1718292429472856300,8.532856201171874,0.4181976318359375,0.88385009765625,0.027618408203125
1718292429522627000,8.582626953125,0.1885223388671875,0.94390869140625,0.01287841796875
1718292429572399000,8.632399169921875,0.28338623046875,1.08709716796875,-0.000518798828125
1718292429622170000,8.682170166015625,0.3328704833984375,1.0531158447265625,-0.1109619140625
1718292429671942100,8.731942138671876,0.1892547607421875,1.1243133544921875,-0.0586395263671875
1718292429721713200,8.781713134765624,0.3127288818359375,1.0546722412109375,-0.0451202392578125
1718292429771485200,8.831485107421875,0.2902374267578125,0.973052978515625,-0.0549468994140625
1718292429821256200,8.881256103515625,0.10302734375,0.9075927734375,-0.073822021484375
1718292429871027200,8.931027099609375,0.1942138671875,0.970367431640625,-0.070465087890625
1718292429920799200,8.98079931640625,0.215087890625,0.9501953125,-0.1217498779296875
1718292429970570000,9.030570068359374,0.1988372802734375,0.9705047607421875,-0.149627685546875
1718292430020342000,9.080342041015625,0.229278564453125,1.002410888671875,-0.1463623046875
1718292430070113300,9.13011328125,0.1937408447265625,1.012481689453125,-0.1303558349609375
1718292430119885300,9.17988525390625,0.1361541748046875,1.0172576904296875,-0.102935791015625
1718292430169657000,9.229656982421876,0.0855712890625,1.0033111572265625,-0.0928497314453125
1718292430219429000,9.27942919921875,0.1224822998046875,0.979400634765625,-0.1535797119140625
1718292430269200100,9.3292001953125,0.124755859375,0.95513916015625,-0.1962890625
1718292430318972200,9.37897216796875,0.0479278564453125,1.0127716064453125,-0.100494384765625
1718292430368743200,9.4287431640625,0.084228515625,0.99847412109375,-0.1543426513671875
1718292430418514000,9.478513916015626,0.0904083251953125,0.9920501708984375,-0.1713714599609375
1718292430468286000,9.528285888671874,0.0786590576171875,1.00408935546875,-0.1498260498046875
1718292430518057200,9.57805712890625,0.0594635009765625,0.995758056640625,-0.1150665283203125
1718292430567829200,9.627829345703125,0.0715789794921875,0.9943695068359375,-0.135009765625
1718292430617600300,9.677600341796875,0.0768890380859375,0.976470947265625,-0.1403656005859375
1718292430667372000,9.7273720703125,0.118804931640625,0.9876251220703125,-0.1318511962890625
1718292430717143000,9.77714306640625,0.080322265625,0.967864990234375,-0.1622314453125
1718292430766915000,9.8269150390625,0.0861358642578125,0.9857635498046875,-0.150146484375
1718292430816686000,9.87668603515625,0.069915771484375,0.9970703125,-0.1420440673828125
1718292430866458000,9.9264580078125,0.0605926513671875,1.0006256103515625,-0.142120361328125
1718292430916229000,9.97622900390625,0.044464111328125,0.9921417236328125,-0.142730712890625
1718292430966001200,10.026001220703124,0.062530517578125,0.993408203125,-0.1456298828125
1718292431015772200,10.075772216796874,0.0637054443359375,1.0086822509765625,-0.132598876953125
1718292431065543200,10.125543212890625,0.084442138671875,0.9851837158203125,-0.1192169189453125
1718292431115315200,10.175315185546875,0.0596771240234375,0.967315673828125,-0.1984405517578125
1718292431165086000,10.2250859375,0.060089111328125,1.0034942626953125,-0.1124267578125
1718292431214858000,10.27485791015625,-0.030303955078125,0.996337890625,-0.1139984130859375
1718292431264629000,10.32462890625,0.0023651123046875,1.020751953125,-0.0810089111328125
1718292431314401000,10.374401123046875,-0.0542144775390625,0.9810943603515625,-0.1299285888671875
1718292431364172000,10.424172119140625,-0.033660888671875,1.0374298095703125,-0.0982666015625
1718292431413944000,10.473944091796875,0.00311279296875,1.0619659423828125,-0.0309600830078125
1718292431463715000,10.523715087890626,0.0149078369140625,1.0762481689453125,-0.0045623779296875
1718292431513486800,10.57348681640625,0.0946502685546875,0.9777069091796875,-0.0939483642578125
1718292431563257900,10.6232578125,-0.0393829345703125,0.938568115234375,-0.119049072265625
1718292431613030000,10.67302978515625,0.0522308349609375,1.0109100341796875,0.0251922607421875
1718292431662801200,10.72280126953125,0.1136474609375,1.0185089111328125,-0.0234832763671875
1718292431712572000,10.772572021484375,0.0843048095703125,1.0260772705078125,0.02880859375
1718292431762344000,10.822343994140626,0.1315765380859375,0.995849609375,0.023834228515625
1718292431812115000,10.872114990234374,0.12884521484375,0.9801483154296875,0.02001953125
1718292431861887000,10.921886962890625,0.1518707275390625,0.9585113525390625,0.030914306640625
1718292431911658000,10.971657958984375,0.1477813720703125,0.9466094970703125,0.000946044921875
1718292431961430000,11.021429931640625,0.1235198974609375,0.9537811279296875,0.035064697265625
1718292432011201000,11.071200927734376,0.181884765625,0.9771728515625,0.0357513427734375
1718292432060973000,11.12097314453125,0.187774658203125,0.9842681884765625,0.014495849609375
1718292432110744000,11.170744140625,0.2039642333984375,0.9737091064453125,0.0345611572265625
1718292432160516000,11.22051611328125,0.2443695068359375,0.993865966796875,0.029144287109375
1718292432210286800,11.270286865234375,0.2257232666015625,0.94610595703125,-0.0008392333984375
1718292432260057900,11.320057861328126,0.253570556640625,0.96234130859375,-0.022552490234375
1718292432309830000,11.369829833984374,0.213287353515625,0.9181060791015625,-0.00494384765625
1718292432359601000,11.419600830078124,0.2593841552734375,0.9578094482421875,0.0401611328125
1718292432409373000,11.469373046875,0.2325897216796875,0.93353271484375,-0.0083770751953125
1718292432459144000,11.51914404296875,0.2628631591796875,0.95269775390625,0.0182952880859375
1718292432508916000,11.568916015625,0.288848876953125,0.9347076416015625,0.016845703125
1718292432558687000,11.61868701171875,0.33941650390625,0.988128662109375,-0.0248260498046875
1718292432608459000,11.668458984375,0.2198944091796875,0.9428558349609375,-0.0614013671875
1718292432658229800,11.718229736328125,0.22637939453125,0.9915313720703125,-0.009368896484375
1718292432708001000,11.7680009765625,0.142333984375,0.9648895263671875,-0.0132904052734375
1718292432757772800,11.817772705078125,0.1337127685546875,0.9390716552734375,-0.029022216796875
1718292432807544000,11.8675439453125,0.022857666015625,1.0172576904296875,0.0639495849609375
1718292432857316000,11.917316162109374,0.0225830078125,1.0503692626953125,-0.1303253173828125
1718292432907086800,11.9670869140625,0.2043304443359375,1.007568359375,-0.229339599609375
1718292432956859000,12.01685888671875,0.1728515625,0.926513671875,-0.149200439453125
1718292433006630000,12.0666298828125,0.005767822265625,0.9695587158203125,-0.0559844970703125
1718292433056402000,12.11640185546875,0.012298583984375,1.0561981201171875,-0.0312042236328125
1718292433106173000,12.1661728515625,-0.0173492431640625,1.0418243408203125,-0.137481689453125
1718292433155943200,12.215943115234374,0.035186767578125,1.024017333984375,-0.0813751220703125
1718292433205715000,12.26571484375,0.0707244873046875,1.00592041015625,-0.155914306640625
1718292433255486000,12.31548583984375,0.052947998046875,0.9424285888671875,-0.183197021484375
1718292433305258000,12.365258056640625,-0.0863494873046875,1.0097198486328125,-0.1301422119140625
1718292433355029000,12.415029052734376,-0.051666259765625,1.0238189697265625,-0.105224609375
1718292433404801000,12.464801025390624,-0.047119140625,1.0428466796875,-0.0793304443359375
1718292433454572000,12.514572021484375,-0.0422210693359375,1.00128173828125,-0.115447998046875
1718292433504343000,12.564343017578125,-0.028472900390625,1.016754150390625,-0.12432861328125
1718292433554115000,12.614114990234375,0.041015625,1.05157470703125,-0.05853271484375
1718292433603886000,12.663885986328125,0.108123779296875,1.0839385986328125,0.0008087158203125
1718292433653658000,12.713658203125,0.081695556640625,0.993682861328125,-0.1831512451171875
1718292433703428900,12.763428955078124,0.1641998291015625,0.966094970703125,-0.082916259765625
1718292433753200000,12.8132001953125,-0.1015777587890625,1.0803985595703125,0.07666015625
1718292433802972200,12.86297216796875,-0.0036773681640625,1.0355224609375,0.1258697509765625
1718292433852743200,12.9127431640625,0.0374603271484375,0.96466064453125,0.0535888671875
1718292433902515200,12.96251513671875,0.168914794921875,0.8857879638671875,-0.0197296142578125
1718292433952286000,13.012285888671874,0.20361328125,0.8802337646484375,-0.071319580078125
1718292434002058000,13.06205810546875,0.2498626708984375,0.954620361328125,0.01617431640625
1718292434051829000,13.1118291015625,0.1485443115234375,1.02239990234375,0.1328887939453125
1718292434101600300,13.161600341796875,0.1959686279296875,1.0196533203125,0.043426513671875
1718292434151372500,13.21137255859375,0.22222900390625,1.01885986328125,0.0394744873046875
1718292434201143300,13.261143310546874,0.2185211181640625,0.970458984375,0.03350830078125
1718292434250915300,13.310915283203125,0.20404052734375,0.9276580810546875,0.0028228759765625
1718292434300686300,13.360686279296875,0.2021636962890625,0.9005126953125,-0.0266265869140625
1718292434350457300,13.410457275390625,0.1895599365234375,0.9597015380859375,0.087860107421875
1718292434400229400,13.4602294921875,0.1826019287109375,0.9266204833984375,0.0098724365234375
1718292434450000400,13.51000048828125,0.2655487060546875,0.9432830810546875,-0.03515625
1718292434499771400,13.559771484375,0.235931396484375,0.9558563232421875,-0.038818359375
1718292434549543400,13.60954345703125,0.109130859375,0.9306182861328125,-0.020294189453125
1718292434599314400,13.659314453125,0.051361083984375,0.9509124755859375,0.0644073486328125
1718292434649086200,13.709086181640625,0.138641357421875,1.0251922607421875,-0.1251068115234375
1718292434698857200,13.758857177734376,0.0381011962890625,1.0807647705078125,-0.05877685546875
1718292434748628500,13.80862841796875,0.1475067138671875,1.039459228515625,-0.150848388671875
1718292434798400500,13.858400390625,0.0877838134765625,1.00604248046875,-0.2653656005859375
1718292434848171300,13.908171142578125,0.08294677734375,0.99005126953125,-0.1353912353515625
1718292434897942300,13.9579423828125,0.0717315673828125,0.996551513671875,-0.1537322998046875
1718292434947714300,14.00771435546875,0.0798187255859375,0.9977569580078125,-0.1996612548828125
1718292434997485300,14.0574853515625,0.079803466796875,1.0236663818359375,-0.110748291015625
1718292435047257300,14.10725732421875,0.1244354248046875,1.088836669921875,-0.0775604248046875
1718292435097028400,14.1570283203125,0.1360931396484375,0.969970703125,-0.213134765625
1718292435146799400,14.20679931640625,0.1558685302734375,1.01544189453125,-0.16064453125
1718292435196571400,14.2565712890625,0.0685272216796875,0.984588623046875,-0.10223388671875
1718292435246342400,14.30634228515625,0.1002960205078125,0.9361724853515625,-0.0653839111328125
1718292435296113200,14.356113037109376,0.10430908203125,0.92156982421875,-0.1042633056640625
1718292435345885200,14.40588525390625,0.1427764892578125,0.91912841796875,-0.0951385498046875
1718292435395656400,14.455656494140625,0.069976806640625,1.033172607421875,-0.2188873291015625
1718292435445427500,14.505427490234375,0.079071044921875,1.036041259765625,0.023468017578125
1718292435495199200,14.55519921875,0.0941162109375,1.022064208984375,-0.1269989013671875
1718292435544970200,14.60497021484375,0.095123291015625,0.9563446044921875,-0.2188873291015625
1718292435594741200,14.6547412109375,0.11810302734375,0.95220947265625,-0.149139404296875
1718292435644513300,14.70451318359375,0.1347808837890625,0.9977569580078125,-0.1496734619140625
1718292435694284300,14.7542841796875,0.015411376953125,0.9909515380859375,-0.0770721435546875
1718292435744055300,14.80405517578125,0.0698394775390625,1.01397705078125,-0.101806640625
1718292435793827300,14.853827392578125,0.088897705078125,0.975830078125,-0.152557373046875
1718292435843598300,14.903598388671876,0.0812835693359375,0.9776763916015625,-0.170196533203125
1718292435893369000,14.953369140625,0.09033203125,1.0099334716796875,-0.1983184814453125
1718292435943141000,15.00314111328125,0.041534423828125,1.024078369140625,-0.1013946533203125
1718292435992912400,15.052912353515625,0.041595458984375,0.9738311767578125,-0.09228515625
1718292436042683400,15.102683349609375,0.0457763671875,1.0020751953125,-0.0956268310546875
1718292436092455400,15.152455322265626,0.0310821533203125,0.967987060546875,-0.138397216796875
1718292436142226400,15.202226318359376,-0.03399658203125,0.88623046875,-0.113739013671875
1718292436191997400,15.25199755859375,0.013671875,1.047576904296875,-0.09124755859375
1718292436241769500,15.30176953125,0.1090087890625,1.1557159423828125,-0.0190887451171875
1718292436291540700,15.351540771484375,0.169891357421875,1.04071044921875,-0.086639404296875
1718292436341311500,15.4013115234375,0.1080322265625,0.908599853515625,-0.156524658203125
1718292436391083500,15.45108349609375,0.0599212646484375,0.915740966796875,-0.1157684326171875
1718292436440854500,15.5008544921875,0.1184844970703125,0.9746551513671875,-0.08367919921875
1718292436490625500,15.55062548828125,0.135467529296875,1.043609619140625,-0.1189117431640625
1718292436540397600,15.6003974609375,0.1332855224609375,0.991973876953125,-0.08148193359375
1718292436590168600,15.65016845703125,0.11151123046875,1.0029754638671875,-0.1236114501953125
1718292436639939600,15.699939697265625,0.0665130615234375,1.0159759521484375,-0.1160736083984375
1718292436689710600,15.749710693359376,0.08807373046875,0.9685821533203125,-0.0561981201171875
1718292436739482600,15.799482666015624,0.08795166015625,0.9653778076171875,-0.06451416015625
1718292436789253400,15.84925341796875,0.0647125244140625,0.9922027587890625,-0.2082061767578125
1718292436839024600,15.899024658203125,0.1716766357421875,0.9809112548828125,-0.1629180908203125
1718292436888796700,15.948796630859375,0.113616943359375,0.9380035400390625,0.02789306640625
1718292436938567700,15.998567626953125,0.098846435546875,0.979888916015625,-0.159576416015625
1718292436988338400,16.04833837890625,0.0179443359375,0.99761962890625,-0.07550048828125
1718292437038109400,16.098109375,0.0427703857421875,0.97955322265625,-0.139129638671875
1718292437087881500,16.147881591796875,0.0332794189453125,1.020782470703125,-0.1082305908203125
1718292437137653000,16.197653076171875,-0.022796630859375,1.0139617919921875,-0.1392059326171875
1718292437187424300,16.24742431640625,-0.00823974609375,0.9910888671875,-0.14044189453125
1718292437237195300,16.2971953125,0.012237548828125,0.9859161376953125,-0.1145782470703125
1718292437286967300,16.34696728515625,-0.0289764404296875,0.997283935546875,-0.11224365234375
1718292437336738000,16.396738037109376,0.0371551513671875,0.9678955078125,-0.1584930419921875
1718292437386509000,16.446509033203125,0.04083251953125,0.9998016357421875,-0.1326904296875
1718292437436281000,16.496281005859377,0.0201873779296875,1.0052642822265625,-0.116058349609375
1718292437486052400,16.54605224609375,0.0016937255859375,0.998809814453125,-0.129974365234375
1718292437535823000,16.595822998046874,0.017364501953125,0.9977264404296875,-0.1328277587890625
1718292437585594000,16.645593994140626,0.005767822265625,0.9930877685546875,-0.1001739501953125
1718292437635366100,16.6953662109375,0.002410888671875,0.986785888671875,-0.17242431640625
1718292437685137200,16.74513720703125,0.013580322265625,0.9983062744140625,-0.1487579345703125
1718292437734908200,16.794908203125,-0.0155792236328125,1.0243072509765625,-0.1054229736328125
1718292437784679200,16.84467919921875,0.018524169921875,0.95635986328125,-0.1087646484375
1718292437834451200,16.894451171875,0.0573272705078125,0.9799957275390625,-0.1637115478515625
1718292437884222200,16.94422216796875,0.0013427734375,0.997344970703125,-0.1423187255859375
1718292437933993200,16.9939931640625,0.0060882568359375,1.02886962890625,-0.1384429931640625
1718292437983764200,17.04376416015625,0.020751953125,0.9863128662109375,-0.1527862548828125
1718292438033535200,17.09353515625,0.0156097412109375,0.9500274658203125,-0.1206512451171875
1718292438083307300,17.143307373046873,0.0014190673828125,0.990966796875,-0.1071319580078125
1718292438133078300,17.193078369140625,0.0609588623046875,1.037078857421875,-0.109100341796875
1718292438182848500,17.2428486328125,0.0172576904296875,1.0118560791015625,-0.1257171630859375
1718292438232619500,17.29261962890625,0.0238037109375,0.981536865234375,-0.1120758056640625
1718292438282391600,17.3423916015625,0.0530853271484375,0.996551513671875,-0.118896484375
1718292438332162600,17.39216259765625,0.044464111328125,0.9826202392578125,-0.1337890625
1718292438381933600,17.44193359375,0.0586395263671875,0.994873046875,-0.128173828125
1718292438431704600,17.49170458984375,0.06463623046875,0.9572296142578125,-0.11761474609375
1718292438481475600,17.5414755859375,0.0574798583984375,0.9957122802734375,-0.119476318359375
1718292438531247600,17.59124755859375,0.082672119140625,0.9918060302734375,-0.1110076904296875
1718292438581018400,17.641018310546876,0.05279541015625,0.998291015625,-0.1100311279296875
1718292438630789600,17.69078955078125,0.0475616455078125,1.004608154296875,-0.08990478515625
1718292438680560600,17.740560546875,0.03662109375,1.0189056396484375,-0.0990142822265625
1718292438730331600,17.79033154296875,0.049285888671875,0.990264892578125,-0.092132568359375
1718292438780103400,17.840103515625,0.0419921875,0.96478271484375,-0.0896759033203125
1718292438829874400,17.88987451171875,0.0569305419921875,1.0272979736328125,-0.083648681640625
1718292438879645700,17.939645751953126,0.0683746337890625,1.0194549560546875,-0.1003570556640625
1718292438929416700,17.989416748046875,0.0612030029296875,0.9903564453125,-0.1092071533203125
1718292438979187500,18.0391875,0.04766845703125,0.976348876953125,-0.0958404541015625
1718292439028959500,18.08895947265625,0.052032470703125,0.9973907470703125,-0.1011962890625
1718292439078730500,18.13873046875,0.063751220703125,1.0155792236328125,-0.1008148193359375
1718292439128501800,18.188501708984376,0.04644775390625,0.9981689453125,-0.1046295166015625
1718292439178272500,18.2382724609375,0.0562744140625,0.974456787109375,-0.111114501953125
1718292439228043500,18.28804345703125,0.056915283203125,0.989105224609375,-0.1107177734375
1718292439277814300,18.337814208984376,0.059417724609375,0.9990386962890625,-0.1161956787109375
1718292439327586300,18.38758642578125,0.05841064453125,0.9839324951171875,-0.111541748046875
1718292439377357600,18.437357666015625,0.055816650390625,1.0047149658203125,-0.1160888671875
1718292439427128600,18.487128662109374,0.0528411865234375,0.9813232421875,-0.116729736328125
1718292439476899300,18.5368994140625,0.0499725341796875,1.0003662109375,-0.10174560546875
1718292439526670300,18.58667041015625,0.0522918701171875,0.9977874755859375,-0.103607177734375
1718292439576441600,18.636441650390626,0.05126953125,0.997283935546875,-0.1053314208984375
1718292439626213600,18.686213623046875,0.053253173828125,0.993804931640625,-0.1132049560546875
1718292439675984400,18.735984375,0.06439208984375,0.98162841796875,-0.1219940185546875
1718292439725755400,18.78575537109375,0.057891845703125,0.9991302490234375,-0.1087799072265625
1718292439775526400,18.8355263671875,0.0664825439453125,0.9953765869140625,-0.0906219482421875
1718292439825297400,18.88529736328125,0.064971923828125,0.9894866943359375,-0.1091461181640625
1718292439875068400,18.935068359375,0.0665130615234375,1.01165771484375,-0.095977783203125
1718292439924839400,18.98483935546875,0.04962158203125,0.9948577880859375,-0.096893310546875
1718292439974611500,19.034611572265625,0.0576019287109375,0.9887237548828125,-0.11212158203125
1718292440024382500,19.084382568359374,0.0674896240234375,0.9940643310546875,-0.1135711669921875
1718292440074153500,19.134153564453126,0.0593719482421875,0.9805908203125,-0.1112518310546875
1718292440123924500,19.183924560546874,0.068695068359375,0.9875030517578125,-0.10980224609375
1718292440173695700,19.23369580078125,0.0651092529296875,0.9901580810546875,-0.1165771484375
1718292440223466800,19.283466796875,0.050689697265625,0.99261474609375,-0.1078033447265625
1718292440273237800,19.33323779296875,0.066314697265625,0.999237060546875,-0.1036529541015625
1718292440323008800,19.3830087890625,0.0668792724609375,0.9908905029296875,-0.1036376953125
1718292440372780800,19.43278076171875,0.07855224609375,0.998779296875,-0.1082611083984375
1718292440422551800,19.4825517578125,0.065032958984375,0.9923858642578125,-0.10888671875
1718292440472322800,19.53232275390625,0.067138671875,0.99896240234375,-0.1053009033203125
1718292440522093800,19.58209375,0.0685272216796875,0.98114013671875,-0.110260009765625
1718292440571864800,19.63186474609375,0.07122802734375,1.0083465576171875,-0.090850830078125
1718292440621635800,19.6816357421875,0.0711517333984375,0.988311767578125,-0.099334716796875
1718292440671406800,19.73140673828125,0.069488525390625,0.9979095458984375,-0.0940399169921875
1718292440721177900,19.781177734375,0.072113037109375,1.0030670166015625,-0.0969085693359375
1718292440770948900,19.830948974609374,0.0706024169921875,0.9830474853515625,-0.1055755615234375
1718292440820719600,19.8807197265625,0.0720367431640625,1.0028228759765625,-0.0973358154296875
1718292440870491600,19.93049169921875,0.063995361328125,0.9853057861328125,-0.105926513671875
1718292440920263000,19.980262939453127,0.0703277587890625,0.9963531494140625,-0.0954132080078125
1718292440970034000,20.030033935546875,0.071441650390625,0.99188232421875,-0.1036834716796875
1718292441019804700,20.0798046875,0.0647735595703125,0.991943359375,-0.104156494140625
1718292441069575700,20.12957568359375,0.0689849853515625,0.99676513671875,-0.0973052978515625
1718292441119347000,20.179346923828124,0.0723114013671875,0.986602783203125,-0.1103363037109375
1718292441169117700,20.22911767578125,0.06695556640625,0.9897003173828125,-0.0994720458984375
1718292441218888700,20.278888671875,0.0761871337890625,0.9974822998046875,-0.1056365966796875
1718292441268659700,20.32865966796875,0.0579071044921875,0.99163818359375,-0.105072021484375
1718292441318430700,20.3784306640625,0.073394775390625,0.9999237060546875,-0.1009674072265625
1718292441368201700,20.42820166015625,0.067291259765625,0.98626708984375,-0.108154296875
1718292441417972500,20.477972412109374,0.06951904296875,0.9980010986328125,-0.1036376953125
1718292441467743700,20.52774365234375,0.0642852783203125,0.9940338134765625,-0.1049957275390625
1718292441517514800,20.5775146484375,0.05792236328125,0.991668701171875,-0.105224609375
1718292441567286800,20.627286865234375,0.0537872314453125,0.990478515625,-0.1070098876953125
1718292441617057800,20.677057861328127,0.0507659912109375,0.9910125732421875,-0.10284423828125
1718292441666828500,20.72682861328125,0.0725860595703125,0.9921112060546875,-0.1204681396484375
1718292441716599800,20.776599853515624,0.053314208984375,0.9931182861328125,-0.1051177978515625
1718292441766370800,20.826370849609376,0.060516357421875,0.9942474365234375,-0.1131439208984375
1718292441816141600,20.8761416015625,0.0515899658203125,0.982086181640625,-0.1271820068359375
1718292441865912600,20.92591259765625,0.051513671875,0.9827117919921875,-0.10821533203125
1718292441915683800,20.975683837890625,0.08306884765625,0.969696044921875,-0.1381683349609375
1718292441965454600,21.02545458984375,0.1012115478515625,0.9938507080078125,-0.13751220703125
1718292442015225600,21.0752255859375,0.080352783203125,1.01275634765625,-0.117523193359375
1718292442064996600,21.12499658203125,0.0291290283203125,1.0167388916015625,-0.07794189453125
1718292442114768000,21.174767822265625,0.0081024169921875,0.9796295166015625,-0.07977294921875
1718292442164538600,21.22453857421875,0.0590362548828125,0.99639892578125,-0.1365966796875
1718292442214309400,21.274309326171874,0.05615234375,1.0130767822265625,-0.145721435546875
1718292442264080600,21.32408056640625,0.0441741943359375,1.0016632080078125,-0.130462646484375
1718292442313851600,21.3738515625,0.04046630859375,0.9634246826171875,-0.146942138671875
1718292442363622700,21.42362255859375,0.0063323974609375,0.95843505859375,-0.16082763671875
1718292442413393400,21.473393310546875,0.00543212890625,1.036163330078125,-0.0995941162109375
1718292442463164700,21.52316455078125,-0.0315704345703125,1.0404205322265625,-0.111114501953125
1718292442512935700,21.572935791015624,-0.0126953125,0.9920501708984375,-0.1437530517578125
1718292442562706400,21.62270654296875,-0.015380859375,0.9432830810546875,-0.1540679931640625
1718292442612477400,21.6724775390625,-0.04547119140625,0.99066162109375,-0.1595458984375
1718292442662248700,21.722248779296876,-0.0613250732421875,1.01251220703125,-0.1356353759765625
1718292442712019500,21.77201953125,-0.063201904296875,0.9626007080078125,-0.07244873046875
1718292442761790500,21.82179052734375,-0.03369140625,0.9561920166015625,-0.1333160400390625
1718292442811561500,21.8715615234375,-0.018768310546875,0.981231689453125,-0.1763916015625
1718292442861332700,21.921332763671874,-0.0450592041015625,1.008209228515625,-0.0828857421875
1718292442911103500,21.971103515625,-0.06268310546875,1.0151824951171875,-0.1168365478515625
1718292442960874500,22.02087451171875,-0.068023681640625,0.9851531982421875,-0.136444091796875
1718292443010645500,22.0706455078125,-0.06207275390625,0.9943389892578125,-0.1511993408203125
1718292443060416500,22.12041650390625,-0.071258544921875,1.0024566650390625,-0.097930908203125
1718292443110187500,22.1701875,-0.096099853515625,0.9864501953125,-0.107177734375
1718292443159959300,22.219959228515624,-0.09075927734375,1.0009918212890625,-0.1186981201171875
1718292443209730000,22.26972998046875,-0.0175933837890625,1.0153045654296875,-0.0887298583984375
1718292443259501300,22.319501220703124,-0.0009918212890625,1.021392822265625,-0.0445556640625
1718292443309272300,22.369272216796876,0.05340576171875,1.009796142578125,-0.04217529296875
1718292443359043000,22.41904296875,0.1194610595703125,0.98797607421875,-0.10736083984375
1718292443408814000,22.46881396484375,0.1536407470703125,0.9900360107421875,-0.1405029296875
1718292443458585300,22.51858544921875,-0.0188751220703125,1.0173492431640625,-0.1305694580078125
1718292443508356400,22.5683564453125,0.088043212890625,1.081634521484375,-0.0482635498046875
1718292443558127000,22.618127197265625,0.21966552734375,1.0568389892578125,0.0001373291015625
1718292443607898000,22.667898193359374,0.3629150390625,0.998138427734375,-0.087890625
1718292443657669400,22.71766943359375,0.29156494140625,1.04962158203125,-0.169097900390625
1718292443707440000,22.767440185546874,0.312225341796875,1.0711212158203125,-0.1281890869140625
1718292443757211100,22.817211181640626,0.340484619140625,1.128173828125,-0.02813720703125
1718292443806982400,22.866982421875,0.33026123046875,1.114898681640625,0.0478973388671875
1718292443856753200,22.916753173828123,0.429931640625,0.8960418701171875,0.150848388671875
1718292443906523100,22.966523193359375,0.3687896728515625,0.9565277099609375,0.1940765380859375
1718292443956294400,23.01629443359375,0.4203643798828125,0.7485504150390625,0.326904296875
1718292444006065200,23.066065185546876,0.59637451171875,0.73699951171875,0.26898193359375
1718292444055836200,23.115836181640624,0.6533660888671875,0.62347412109375,0.301300048828125
1718292444105607200,23.165607177734376,0.7870025634765625,0.5791778564453125,0.3747406005859375
1718292444155377700,23.215377685546876,0.8147125244140625,0.368743896484375,0.355072021484375
1718292444205148700,23.265148681640625,0.8571624755859375,0.34027099609375,0.2820892333984375
1718292444254919700,23.314919677734373,0.891357421875,0.38848876953125,0.2879791259765625
1718292444304690700,23.364690673828125,0.7675628662109375,0.306610107421875,0.39666748046875
1718292444354461700,23.414461669921874,0.677337646484375,0.1648712158203125,0.4095916748046875
1718292444404232700,23.464232666015626,0.578094482421875,0.148406982421875,0.455657958984375
1718292444454003500,23.51400341796875,0.5841217041015625,0.026580810546875,0.42999267578125
1718292444503774700,23.563774658203126,0.7547607421875,0.1370849609375,0.3878021240234375
1718292444553544700,23.613544677734374,0.8526763916015625,0.2551422119140625,0.440704345703125
1718292444603315700,23.663315673828127,0.923736572265625,0.11810302734375,0.367156982421875
1718292444653086700,23.713086669921875,1.1006927490234375,0.3860015869140625,0.3005523681640625
1718292444702857700,23.762857666015623,0.5234527587890625,0.244598388671875,0.3937835693359375
1718292444752628500,23.81262841796875,0.70635986328125,0.13427734375,0.588348388671875
1718292444802399700,23.862399658203124,0.8101043701171875,0.1044921875,0.5594940185546875
1718292444852170800,23.912170654296876,0.7132568359375,0.0088958740234375,0.469146728515625
1718292444901941800,23.961941650390624,0.7730255126953125,0.0401458740234375,0.507965087890625
1718292444951712500,24.01171240234375,0.8480682373046875,-0.0453338623046875,0.369232177734375
1718292445001483800,24.06148388671875,0.9243011474609375,0.034820556640625,0.40948486328125
1718292445051253800,24.111253662109377,0.8008880615234375,0.1331939697265625,0.4145660400390625
1718292445101024500,24.1610244140625,0.8074798583984375,0.193878173828125,0.40667724609375
1718292445150795800,24.210795654296874,0.960662841796875,0.1636505126953125,0.4998931884765625
1718292445200566800,24.26056689453125,0.8442230224609375,0.1464691162109375,0.334381103515625
1718292445250337800,24.310337890625,0.9601287841796875,0.2481689453125,0.2473907470703125
1718292445300108500,24.360108642578126,0.7704620361328125,0.3846282958984375,0.154144287109375
1718292445349879800,24.4098798828125,0.7926025390625,0.334991455078125,0.338836669921875
1718292445399650800,24.45965087890625,0.8629302978515625,0.7167510986328125,0.24188232421875
1718292445449420800,24.5094208984375,0.7101593017578125,0.5478363037109375,0.2101898193359375
1718292445499191800,24.55919189453125,0.7857818603515625,0.506134033203125,0.116546630859375
1718292445548962800,24.608962890625,0.740936279296875,0.8510894775390625,0.07867431640625
1718292445598733600,24.658733642578124,0.8377227783203125,1.0512847900390625,0.0636444091796875
1718292445648504800,24.7085048828125,0.627471923828125,0.6969146728515625,0.0303192138671875
1718292445698275800,24.75827587890625,0.76239013671875,0.855682373046875,-0.0431976318359375
1718292445748046600,24.808046630859376,0.7093658447265625,0.8968048095703125,-0.0792694091796875
1718292445797817600,24.857817626953125,0.62713623046875,0.839019775390625,0.11273193359375
1718292445847587800,24.907587890625,0.5196685791015625,0.87969970703125,0.061126708984375
1718292445897358600,24.957358642578125,0.545166015625,0.884002685546875,-0.04779052734375
1718292445947129600,25.007129638671874,0.70562744140625,0.7903289794921875,0.0535430908203125
1718292445996900900,25.05690087890625,0.5986175537109375,0.8027801513671875,-0.007232666015625
1718292446046671600,25.106671630859374,0.6685333251953125,0.8898468017578125,-0.0259246826171875
1718292446096442600,25.156442626953126,0.691192626953125,0.8226776123046875,0.0350189208984375
1718292446146212600,25.206212646484374,0.5863189697265625,0.678680419921875,0.078826904296875
1718292446195983600,25.255983642578126,0.741424560546875,0.7069854736328125,0.1747283935546875
1718292446245754600,25.305754638671875,0.8686981201171875,0.701141357421875,0.1259307861328125
1718292446295526000,25.35552587890625,0.85076904296875,0.651275634765625,0.0910186767578125
1718292446345296600,25.405296630859375,0.8721923828125,0.6145477294921875,0.22235107421875
1718292446395067600,25.455067626953124,0.74676513671875,0.49835205078125,0.2430572509765625
1718292446444837600,25.504837646484376,0.848052978515625,0.5019989013671875,0.2623291015625
1718292446494608600,25.554608642578124,0.8305816650390625,0.49017333984375,0.3231353759765625
1718292446544379600,25.604379638671876,0.817596435546875,0.4051971435546875,0.3411102294921875
1718292446594150700,25.654150634765625,0.873870849609375,0.369293212890625,0.347625732421875
1718292446643921700,25.703921630859377,0.8908233642578125,0.348785400390625,0.3246307373046875
1718292446693691600,25.753691650390625,0.8025970458984375,0.243133544921875,0.3554534912109375
1718292446743462700,25.803462646484373,0.793548583984375,0.095001220703125,0.416351318359375
1718292446793233700,25.853233642578125,0.688079833984375,0.0267486572265625,0.3695831298828125
1718292446843004700,25.903004638671874,0.878387451171875,0.0466461181640625,0.1708526611328125
1718292446892775700,25.952775634765626,0.78912353515625,-0.0864105224609375,0.2574920654296875
1718292446942546700,26.002546630859374,0.8387603759765625,0.039886474609375,0.353057861328125
1718292446992316700,26.052316650390626,0.83233642578125,-0.00750732421875,0.14837646484375
1718292447042087700,26.102087646484375,0.79608154296875,0.0555877685546875,0.2393798828125
1718292447091858700,26.151858642578127,0.8564910888671875,0.1324310302734375,0.3075714111328125
1718292447141629700,26.201629638671875,0.867401123046875,0.2364044189453125,0.242706298828125
1718292447191400200,26.251400146484375,1.005126953125,0.3402557373046875,0.2373504638671875
1718292447241171200,26.301171142578124,0.66943359375,0.304595947265625,0.3441162109375
1718292447290942200,26.350942138671876,0.829376220703125,0.517303466796875,-0.05340576171875
1718292447340713200,26.400713134765624,0.937896728515625,0.9164276123046875,-0.0013275146484375
1718292447390484200,26.450484130859376,0.77032470703125,0.6125335693359375,0.0965576171875
1718292447440254200,26.500254150390624,0.8335723876953125,0.6504058837890625,0.1448974609375
1718292447490025200,26.550025146484376,0.8170623779296875,0.8674774169921875,-0.006927490234375
1718292447539796200,26.599796142578125,0.8755950927734375,0.8808441162109375,-0.11224365234375
1718292447589567200,26.649567138671873,0.894500732421875,0.9893951416015625,-0.019622802734375
1718292447639338200,26.699338134765625,0.69757080078125,0.88201904296875,0.138427734375
1718292447689108200,26.749108154296874,0.5176239013671875,0.7598876953125,-0.0263214111328125
1718292447738879200,26.798879150390626,0.721282958984375,0.7302398681640625,-0.0259857177734375
1718292447788650200,26.848650146484374,0.9311676025390625,0.70196533203125,0.015625
1718292447838421000,26.8984208984375,0.7376708984375,0.7681427001953125,0.03564453125
1718292447888191200,26.948191162109374,0.7022705078125,0.703338623046875,-0.0625762939453125
1718292447937962200,26.997962158203126,0.7357025146484375,0.5989227294921875,0.1175537109375
1718292447987733200,27.047733154296875,0.6448516845703125,0.3962554931640625,0.2014923095703125
1718292448037504300,27.097504150390623,1.16888427734375,0.889373779296875,0.2848663330078125
1718292448087274200,27.147274169921875,0.808502197265625,0.621551513671875,0.197784423828125
1718292448137045200,27.197045166015624,0.88751220703125,0.5587005615234375,0.2564849853515625
1718292448186815700,27.246815673828124,0.8244476318359375,0.406890869140625,0.2390289306640625
1718292448236586500,27.29658642578125,0.77032470703125,0.3593902587890625,0.2973480224609375
1718292448286356700,27.346356689453124,0.8261260986328125,0.3354034423828125,0.2575225830078125
1718292448336127700,27.396127685546876,0.8204345703125,0.2816009521484375,0.34979248046875
1718292448385898500,27.4458984375,0.7670440673828125,0.1012725830078125,0.38970947265625
1718292448435669800,27.495669677734377,0.844970703125,0.0966339111328125,0.4031982421875
1718292448485439700,27.545439697265625,0.6061248779296875,-0.026275634765625,0.38128662109375
1718292448535210500,27.59521044921875,0.5586395263671875,-0.0273284912109375,0.3187103271484375
1718292448584981800,27.644981689453125,0.7422637939453125,-0.244537353515625,0.44232177734375
1718292448634751700,27.694751708984374,1.1864471435546875,-0.2907867431640625,0.471710205078125
1718292448684522800,27.744522705078126,0.9593963623046875,0.1336517333984375,0.300994873046875
1718292448734293800,27.794293701171874,0.8509368896484375,0.374664306640625,0.3175048828125
1718292448784064800,27.844064697265626,0.646453857421875,0.2572021484375,0.3108367919921875
1718292448833834800,27.893834716796874,0.7331085205078125,0.246490478515625,0.29766845703125
1718292448883605800,27.943605712890626,0.84112548828125,0.4529571533203125,0.114593505859375
1718292448933376800,27.993376708984375,0.721435546875,0.2838134765625,0.0693359375
1718292448983146800,28.043146728515627,0.7711944580078125,0.71881103515625,-0.0349884033203125
1718292449032917800,28.092917724609375,0.700592041015625,0.7479248046875,-0.0162200927734375
1718292449082688500,28.1426884765625,1.06689453125,1.6840362548828125,0.0610198974609375
1718292449132459500,28.19245947265625,0.6416778564453125,0.8895721435546875,0.1641998291015625
1718292449182229000,28.24222900390625,0.21539306640625,0.368621826171875,-0.0092620849609375
1718292449232000000,28.292,0.70843505859375,0.8144073486328125,-0.01263427734375
1718292449281771000,28.34177099609375,1.2178497314453125,1.0353851318359375,0.2042083740234375
1718292449331541000,28.391541015625,0.9343719482421875,0.9730377197265625,-0.0238037109375
1718292449381312300,28.441312255859376,0.748321533203125,0.748046875,-0.1299591064453125
1718292449431083000,28.4910830078125,0.833892822265625,0.61834716796875,-0.07012939453125
1718292449480854000,28.54085400390625,1.2325592041015625,0.7175750732421875,0.2851409912109375
1718292449530624300,28.590624267578125,1.778839111328125,0.68560791015625,0.2511444091796875
1718292449580395000,28.64039501953125,0.5762176513671875,0.8763427734375,-0.104248046875
1718292449630166000,28.690166015625,0.6130828857421875,0.3466949462890625,0.4270477294921875
1718292449679936300,28.739936279296874,0.460357666015625,0.2759246826171875,0.207122802734375
1718292449729707000,28.78970703125,0.7479248046875,0.10418701171875,0.219970703125
1718292449779478000,28.83947802734375,0.57073974609375,-0.005950927734375,0.396514892578125
1718292449829248000,28.889248046875,0.69659423828125,-0.18707275390625,0.4201507568359375
1718292449879019000,28.93901904296875,0.85919189453125,-0.0634613037109375,0.2176513671875
1718292449928790000,28.9887900390625,0.694793701171875,-0.0020599365234375,0.10601806640625
1718292449978560000,29.03856005859375,0.701904296875,0.1160125732421875,0.13616943359375
1718292450028331000,29.0883310546875,0.8575897216796875,0.248809814453125,0.1495819091796875
1718292450078102000,29.13810205078125,0.8368682861328125,0.5344696044921875,0.093902587890625
1718292450127872000,29.1878720703125,0.891876220703125,0.6131591796875,0.0449676513671875
1718292450177643300,29.237643310546876,0.9456634521484375,0.9334259033203125,0.0677947998046875
1718292450227414000,29.2874140625,0.91046142578125,1.0047454833984375,-0.03265380859375
1718292450277184300,29.337184326171876,0.950103759765625,0.864532470703125,-0.088226318359375
1718292450326955000,29.386955078125,0.9644317626953125,0.9922332763671875,0.1674041748046875
1718292450376726300,29.436726318359376,0.7744293212890625,0.8743743896484375,0.0327606201171875
1718292450426496300,29.486496337890625,0.74383544921875,0.873016357421875,-0.005706787109375
1718292450476267000,29.53626708984375,0.773712158203125,0.55645751953125,-0.0342864990234375
1718292450526038300,29.586038330078125,0.86639404296875,0.8816070556640625,0.1019134521484375
1718292450575808300,29.635808349609373,1.0164337158203125,0.5806884765625,0.22357177734375
1718292450625579000,29.6855791015625,0.770263671875,0.622711181640625,0.246246337890625
1718292450675350300,29.735350341796874,0.57904052734375,0.480133056640625,0.3025054931640625
1718292450725120000,29.7851201171875,0.7945556640625,0.14703369140625,0.33026123046875
1718292450774891300,29.834891357421874,0.9163360595703125,0.1581268310546875,0.2181549072265625
1718292450824662300,29.884662353515626,0.7057342529296875,0.0947723388671875,0.332366943359375
1718292450874432000,29.934431884765626,0.566009521484375,-0.025421142578125,0.364532470703125
1718292450924203300,29.984203369140626,0.4329376220703125,-0.1259307861328125,0.0381317138671875
1718292450973973200,30.03397314453125,0.867767333984375,0.0041046142578125,0.12322998046875
1718292451023744000,30.083743896484375,0.7526092529296875,0.0018310546875,0.0715179443359375
1718292451073515300,30.133515380859375,0.709808349609375,0.1561431884765625,0.1885986328125
1718292451123285200,30.18328515625,0.8632659912109375,0.61309814453125,-0.047149658203125
1718292451173056800,30.233056884765624,0.8633880615234375,0.874237060546875,0.0868072509765625
1718292451222828000,30.282828125,0.9268646240234375,0.8124542236328125,0.08209228515625
1718292451272598000,30.332597900390624,0.9861297607421875,0.8238372802734375,0.1798095703125
1718292451322368800,30.38236865234375,1.02911376953125,1.1266937255859375,0.013916015625
1718292451372140000,30.43214013671875,0.78399658203125,1.034271240234375,0.0778045654296875
1718292451421910000,30.481909912109376,0.6731109619140625,0.7684173583984375,0.0798797607421875
1718292451471680800,30.5316806640625,0.96856689453125,0.65960693359375,-0.075439453125
1718292451521451000,30.581450927734377,1.3077392578125,0.8378448486328125,-0.0057220458984375
1718292451571221800,30.6312216796875,0.9201812744140625,0.7091064453125,-0.13787841796875
1718292451620993000,30.680992919921874,0.64349365234375,0.656585693359375,-0.1030120849609375
1718292451670763000,30.730762939453125,0.4368133544921875,0.2106475830078125,0.032318115234375
1718292451720533800,30.78053369140625,1.508087158203125,0.9322509765625,0.09503173828125
1718292451770304000,30.830303955078126,0.7946319580078125,0.0706329345703125,0.0743865966796875
1718292451820075000,30.880074951171874,0.474945068359375,0.28472900390625,0.4681854248046875
1718292451869845800,30.929845703125,0.4992828369140625,-0.1348419189453125,0.3613739013671875
1718292451919616000,30.979615966796874,0.7353057861328125,-0.0596923828125,0.3722076416015625
1718292451969386800,31.02938671875,0.9303741455078125,0.0049285888671875,0.2402191162109375
1718292452019157000,31.079156982421875,0.46624755859375,0.3310699462890625,0.336822509765625
1718292452068928000,31.128927978515627,1.553741455078125,-0.1804656982421875,0.50677490234375
1718292452118698800,31.17869873046875,1.13092041015625,0.172027587890625,0.33074951171875
1718292452168468700,31.22846875,0.933197021484375,-0.079437255859375,0.1262969970703125
1718292452218239700,31.27823974609375,0.574798583984375,-0.122100830078125,0.2608184814453125
1718292452268010000,31.328010009765624,0.974273681640625,-0.000640869140625,0.1000213623046875
1718292452317780700,31.37778076171875,0.7932281494140625,-0.0428619384765625,0.0738677978515625
1718292452367551700,31.4275517578125,0.9228973388671875,0.1681060791015625,0.2182464599609375
1718292452417322000,31.477322021484376,0.8609619140625,0.19293212890625,0.2103424072265625
1718292452467092700,31.5270927734375,0.81964111328125,0.340240478515625,0.1910400390625
1718292452516863000,31.576863037109376,0.715606689453125,0.5130462646484375,0.233795166015625
1718292452566633700,31.6266337890625,0.664093017578125,0.341156005859375,0.056640625
1718292452616403700,31.67640380859375,0.616455078125,0.575164794921875,0.1388702392578125
1718292452666175000,31.726175048828125,1.12548828125,1.715240478515625,0.0406341552734375
1718292452715945700,31.77594580078125,1.04058837890625,0.9404144287109375,0.2242279052734375
1718292452765715700,31.8257158203125,0.858856201171875,0.7128143310546875,0.1323089599609375
1718292452815487000,31.875487060546874,0.914825439453125,0.886199951171875,0.041046142578125
1718292452865256700,31.925256591796874,1.0497283935546875,0.76959228515625,-0.074981689453125
1718292452915028000,31.975028076171874,0.4968414306640625,0.6267852783203125,-0.1136932373046875
1718292452964797700,32.024797607421874,0.9794769287109375,0.8088531494140625,0.1503143310546875
1718292453014568700,32.07456860351562,1.4589691162109375,0.6790618896484375,0.2687835693359375
1718292453064340000,32.12434008789062,0.925323486328125,0.949371337890625,0.0077056884765625
1718292453114109700,32.17410961914062,0.74920654296875,0.1130828857421875,0.22509765625
1718292453163880700,32.22388061523438,0.505859375,0.068145751953125,0.2848052978515625
1718292453213650400,32.273650390625,0.27294921875,0.155975341796875,0.1178436279296875
1718292453263421400,32.32342138671875,0.607147216796875,-0.052154541015625,0.4922943115234375
1718292453313191700,32.37319165039062,0.3925628662109375,-0.12908935546875,0.1959075927734375
1718292453362962400,32.42296240234375,0.65301513671875,-0.182647705078125,0.3345947265625
1718292453412732700,32.472732666015624,0.819610595703125,0.1770782470703125,0.0644989013671875
1718292453462503700,32.52250366210937,0.6084442138671875,0.169219970703125,0.1785736083984375
1718292453512274400,32.5722744140625,0.6796875,0.577484130859375,0.001434326171875
1718292453562044700,32.62204467773437,0.8563690185546875,0.8538665771484375,0.1236419677734375
1718292453611815400,32.6718154296875,1.071868896484375,0.9709320068359375,0.2783050537109375
1718292453661585700,32.72158569335937,1.200653076171875,1.4675445556640625,-0.0940093994140625
1718292453711356700,32.77135668945313,0.466949462890625,0.6805419921875,0.0671234130859375
1718292453761126400,32.82112646484375,0.7121429443359375,0.7490386962890625,0.0521240234375
1718292453810897700,32.87089770507812,0.9925537109375,0.801727294921875,0.160614013671875
1718292453860667400,32.92066748046875,1.0526885986328125,0.863311767578125,-0.1110382080078125
1718292453910438700,32.97043872070312,1.0819549560546875,0.8908538818359375,0.203643798828125
1718292453960208600,33.020208740234374,0.8745880126953125,0.6988372802734375,0.0638275146484375
1718292454009979400,33.0699794921875,0.998626708984375,0.83990478515625,0.13909912109375
1718292454059749600,33.11974951171875,0.7345733642578125,0.401885986328125,0.0744171142578125
1718292454109520600,33.16952075195312,0.50579833984375,0.173736572265625,0.1362762451171875
1718292454159291400,33.21929150390625,0.5621490478515625,-0.0079193115234375,0.3363189697265625
1718292454209061400,33.26906127929688,0.6988372802734375,-0.0888824462890625,0.3562469482421875
1718292454258832100,33.31883203125,0.5936126708984375,-0.0731201171875,0.325408935546875
1718292454308602400,33.36860229492188,0.08099365234375,-0.2367095947265625,0.1506500244140625
1718292454358373400,33.41837329101563,0.16046142578125,-0.0333251953125,-0.170166015625
1718292454408143400,33.46814331054688,0.9719085693359375,1.6224517822265625,-0.171173095703125
1718292454457914400,33.51791430664063,1.578826904296875,1.00579833984375,0.2668609619140625
1718292454507684400,33.56768432617187,0.81488037109375,0.8994140625,0.0606536865234375
1718292454557455400,33.61745532226563,0.5608978271484375,0.6085662841796875,-0.0119171142578125
1718292454607225300,33.66722534179687,1.0214691162109375,0.8489990234375,0.010162353515625
1718292454656996400,33.71699633789063,1.2109527587890625,0.7253265380859375,0.2830963134765625
1718292454706766300,33.76676635742187,0.8150177001953125,0.877044677734375,0.1619415283203125
1718292454756537000,33.816537109375,1.1980438232421875,1.0176544189453125,0.05572509765625
1718292454806307300,33.86630737304687,1.43695068359375,0.936431884765625,0.151641845703125
1718292454856078300,33.91607836914063,0.6806488037109375,0.940338134765625,0.1964874267578125
1718292454905848300,33.96584838867187,0.6648406982421875,0.198028564453125,0.394989013671875
1718292454955619300,34.01561938476563,0.4585723876953125,0.31072998046875,0.090118408203125
1718292455005389300,34.06538940429687,0.690399169921875,0.49371337890625,-0.0459136962890625
1718292455055160300,34.11516040039062,0.9875946044921875,-0.1560516357421875,0.3482818603515625
1718292455104930300,34.16493041992187,0.5626068115234375,-0.0105133056640625,0.358062744140625
1718292455154702000,34.2147021484375,0.8168182373046875,-0.154144287109375,0.166717529296875
1718292455204472000,34.26447216796875,0.4434661865234375,-0.1319122314453125,0.11944580078125
1718292455254243000,34.3142431640625,0.28900146484375,-0.1020355224609375,0.10064697265625
1718292455304013000,34.364012939453126,0.915679931640625,0.0416412353515625,0.2999420166015625
1718292455353784000,34.4137841796875,0.86529541015625,0.2176513671875,0.07684326171875
1718292455403554300,34.46355419921875,0.8335418701171875,0.1307220458984375,0.1134185791015625
1718292455453325000,34.513324951171874,1.05926513671875,0.915313720703125,0.309295654296875
1718292455503095000,34.563094970703126,1.00689697265625,1.156890869140625,-0.2027740478515625
1718292455552866000,34.612865966796875,0.888397216796875,0.7863006591796875,-0.0684814453125
1718292455602636000,34.66263598632813,0.6440277099609375,0.91412353515625,0.03375244140625
1718292455652407300,34.7124072265625,0.9884185791015625,0.873077392578125,0.1744537353515625
1718292455702177000,34.76217700195313,1.1538848876953125,0.9034423828125,0.0865631103515625
1718292455751948000,34.811947998046875,0.8439483642578125,0.9049835205078125,-0.08416748046875
1718292455801718000,34.86171801757813,0.620269775390625,0.713592529296875,-0.089111328125
1718292455851489000,34.911489013671876,0.8881378173828125,0.5990753173828125,0.5716400146484375
1718292455901259300,34.96125927734375,1.008880615234375,0.53375244140625,0.3011627197265625
1718292455951029000,35.01102905273437,0.8307952880859375,0.4449310302734375,-0.005126953125
1718292456000800300,35.06080029296875,0.6659088134765625,0.363739013671875,0.1051177978515625
1718292456050570000,35.11057006835937,0.871429443359375,0.2538604736328125,0.4004364013671875
1718292456100341000,35.16034106445313,0.245574951171875,-0.0632171630859375,0.2561798095703125
1718292456150111200,35.210111328125,0.5319366455078125,-0.03741455078125,0.328277587890625
1718292456199881500,35.259881591796876,0.585052490234375,-0.1379852294921875,0.2119293212890625
1718292456249651700,35.30965161132813,0.475250244140625,-0.0574493408203125,0.109954833984375
1718292456299422500,35.35942236328125,0.75811767578125,0.0878753662109375,0.1500244140625
1718292456349192700,35.40919262695313,0.9910736083984375,0.3656768798828125,0.20416259765625
1718292456398963700,35.45896362304688,1.103424072265625,0.8947906494140625,0.1859283447265625
1718292456448733700,35.50873364257812,0.8459625244140625,0.8095550537109375,0.05230712890625
1718292456498504700,35.55850463867188,1.1510009765625,1.19140625,0.0482635498046875
1718292456548274400,35.6082744140625,1.23956298828125,1.3798828125,0.0295257568359375
1718292456598044700,35.658044677734374,0.5743255615234375,0.6272125244140625,-0.01397705078125
1718292456647815700,35.70781567382812,0.7468414306640625,0.524169921875,-0.0819854736328125
1718292456697585700,35.757585693359374,0.96661376953125,0.75946044921875,-0.0865478515625
1718292456747356700,35.80735668945312,1.0789031982421875,0.703399658203125,0.1594390869140625
1718292456797126700,35.857126708984374,0.70025634765625,0.7972259521484375,0.051544189453125
1718292456846897700,35.90689770507812,1.3426666259765625,0.5349273681640625,0.3225250244140625
1718292456896667400,35.95666748046875,0.721893310546875,0.4709014892578125,0.269256591796875
1718292456946438700,36.00643872070312,0.5915679931640625,0.1375274658203125,0.117706298828125
1718292456996208600,36.056208740234375,0.284576416015625,-0.064788818359375,0.1585540771484375
1718292457045979400,36.1059794921875,0.4863739013671875,-0.092437744140625,0.2966766357421875
1718292457095749600,36.15574951171875,0.28668212890625,-0.1424407958984375,0.2171783447265625
1718292457145519600,36.20551953125,0.732513427734375,-0.0558319091796875,0.0823516845703125
1718292457195291100,36.255291015625,0.5376129150390625,0.16314697265625,-0.02703857421875
1718292457245061000,36.30506103515625,0.71490478515625,0.349822998046875,0.2231597900390625
1718292457294831900,36.354831787109376,0.6837005615234375,0.61444091796875,0.04107666015625
1718292457344602000,36.40460205078125,0.7751007080078125,0.964080810546875,0.16632080078125
1718292457394373000,36.454373046875,0.693450927734375,0.568572998046875,0.20184326171875
1718292457444143000,36.50414306640625,0.8854522705078125,1.393829345703125,-0.0994720458984375
1718292457493913000,36.5539130859375,1.022491455078125,0.9099884033203125,0.0439910888671875
1718292457543684000,36.60368408203125,0.8206787109375,0.8275299072265625,0.2439117431640625
1718292457593454000,36.6534541015625,0.9752197265625,1.260955810546875,-0.00067138671875
1718292457643225000,36.70322509765625,1.2763214111328125,0.61102294921875,-0.1692962646484375
1718292457692995000,36.7529951171875,0.889373779296875,0.6920013427734375,-0.0919342041015625
1718292457742766000,36.80276611328125,0.952362060546875,0.5421905517578125,0.401092529296875
1718292457792536000,36.8525361328125,0.74847412109375,0.4458160400390625,0.08734130859375
1718292457842306000,36.90230615234375,1.2131195068359375,0.129119873046875,0.1973724365234375
1718292457892077300,36.952077392578126,0.4837493896484375,0.00274658203125,0.30340576171875
1718292457941847000,37.001846923828126,0.6201019287109375,0.2223052978515625,0.4197540283203125
1718292457991618000,37.0516181640625,0.0746917724609375,-0.2341461181640625,0.0476531982421875
1718292458041388000,37.101387939453126,0.323455810546875,-0.13653564453125,0.131378173828125
1718292458091159000,37.151158935546874,0.692047119140625,0.2942352294921875,0.2327117919921875
1718292458140929000,37.200928955078126,1.000579833984375,0.41876220703125,0.1169586181640625
1718292458190698500,37.250698486328126,0.8960723876953125,1.1436767578125,-0.1540985107421875
1718292458240469800,37.3004697265625,1.16998291015625,1.2594451904296875,0.058380126953125
1718292458290239500,37.350239501953126,1.357330322265625,1.291290283203125,-0.02130126953125
1718292458340010800,37.4000107421875,0.9112396240234375,0.7349395751953125,0.334381103515625
1718292458389780700,37.44978076171875,0.847412109375,0.938018798828125,-0.02880859375
1718292458439550700,37.49955078125,0.9252471923828125,0.520233154296875,-0.10675048828125
1718292458489321700,37.54932177734375,0.9566650390625,0.794464111328125,-0.080657958984375
1718292458539091700,37.599091796875,0.972686767578125,0.5137481689453125,0.2788848876953125
1718292458588862700,37.64886279296875,1.2841796875,0.9289398193359375,0.1539306640625
1718292458638632700,37.6986328125,0.7062530517578125,0.5128326416015625,-0.0030670166015625
1718292458688402700,37.748402587890624,0.3648223876953125,0.0254364013671875,0.2091064453125
1718292458738173700,37.79817358398437,0.2589263916015625,-0.0893707275390625,0.310943603515625
1718292458787943700,37.847943603515624,0.37451171875,-0.2221221923828125,0.3784027099609375
1718292458837714700,37.89771459960937,0.39788818359375,-0.2138671875,0.1879119873046875
1718292458887484700,37.947484619140624,0.771240234375,0.070404052734375,0.0920257568359375
1718292458937254700,37.997254638671876,0.8269195556640625,0.2794647216796875,0.0132598876953125
1718292458987025700,38.047025634765625,0.99591064453125,0.684326171875,0.0072174072265625
1718292459036795600,38.096795654296876,0.840576171875,0.801605224609375,-0.0634613037109375
1718292459086566700,38.146566650390625,1.093505859375,0.7706451416015625,0.1407012939453125
1718292459136336600,38.19633666992188,1.168304443359375,1.373260498046875,0.117919921875
1718292459186107000,38.24610693359375,0.9204559326171875,0.901519775390625,0.180999755859375
1718292459235877600,38.29587768554688,0.8231048583984375,0.7816619873046875,0.0180816650390625
1718292459285648000,38.34564794921875,0.6127471923828125,0.6806488037109375,-0.11236572265625
1718292459335417900,38.39541796875,1.04730224609375,0.8101348876953125,-0.091644287109375
1718292459385188900,38.44518896484375,1.0435638427734375,0.8333740234375,0.2609405517578125
1718292459434958800,38.494958740234374,0.927825927734375,0.646484375,0.141845703125
1718292459484729900,38.54472973632812,0.8944549560546875,0.5421295166015625,0.231292724609375
1718292459534499800,38.594499755859374,0.6574554443359375,0.50543212890625,0.1732177734375
1718292459589246700,38.649246826171876,0.3661651611328125,0.1207427978515625,0.1052398681640625
1718292459639017700,38.699017822265624,0.128570556640625,-0.1340789794921875,0.440826416015625
1718292459688788000,38.7487880859375,0.591796875,-0.31207275390625,0.28472900390625
1718292459738557700,38.7985576171875,0.5449371337890625,-0.18695068359375,0.074493408203125
1718292459788329000,38.848328857421876,0.850006103515625,0.1798095703125,0.2561798095703125
1718292459838098700,38.8980986328125,0.9857635498046875,0.427215576171875,0.2318572998046875
1718292459887869000,38.94786889648437,0.8494720458984375,0.5023193359375,0.0535125732421875
1718292459937640000,38.99763989257813,0.8571929931640625,0.90802001953125,0.2869415283203125
1718292459987410000,39.04740991210937,1.11016845703125,1.15478515625,0.178924560546875
1718292460037181000,39.09718090820313,1.0216827392578125,1.185028076171875,0.13885498046875
1718292460086950700,39.14695068359375,0.978515625,0.9135589599609375,-0.0150146484375
1718292460136721000,39.196720947265625,1.0216064453125,0.865631103515625,0.1232147216796875
1718292460186491100,39.2464912109375,0.96148681640625,0.8020172119140625,-0.1056060791015625
1718292460236261400,39.29626147460937,1.110321044921875,0.59368896484375,-0.261810302734375
1718292460286031400,39.34603125,0.972900390625,0.76446533203125,0.0801544189453125
1718292460335802400,39.39580224609375,0.891326904296875,0.6663818359375,0.1338348388671875
1718292460385572000,39.445572021484374,0.832550048828125,0.3940582275390625,0.03656005859375
1718292460435342300,39.49534228515625,0.6954345703125,0.110137939453125,0.094451904296875
1718292460485113300,39.54511328125,0.2091827392578125,-0.186553955078125,0.2360076904296875
1718292460534883300,39.59488330078125,0.235931396484375,-0.19244384765625,0.3570556640625
1718292460584653300,39.6446533203125,0.3418121337890625,-0.1880645751953125,0.17041015625
1718292460634424300,39.69442431640625,0.6339569091796875,-0.1693572998046875,0.1654052734375
1718292460684194300,39.7441943359375,0.7381591796875,0.3589019775390625,-0.0053863525390625
1718292460733964300,39.79396435546875,0.927459716796875,0.824127197265625,-0.063629150390625
1718292460783734300,39.843734375,1.0351409912109375,1.1339263916015625,-0.15545654296875
1718292460833505300,39.89350537109375,1.0955047607421875,1.0259857177734375,0.1885833740234375
1718292460883275300,39.943275146484375,1.023223876953125,0.9248504638671875,0.11297607421875
1718292460933045500,39.99304541015625,0.88995361328125,0.91656494140625,0.1288604736328125
1718292460982816300,40.042816162109375,0.9852294921875,0.8990478515625,0.014434814453125
1718292461032586200,40.09258618164063,1.0680999755859375,0.8327789306640625,-0.2841644287109375
1718292461082356200,40.14235620117187,0.7480010986328125,0.6957855224609375,0.1060028076171875
1718292461132127200,40.19212719726563,0.992279052734375,0.70611572265625,0.360198974609375
1718292461181898800,40.24189868164063,0.7689971923828125,0.6376190185546875,0.198577880859375
1718292461231669000,40.2916689453125,0.7348785400390625,0.3026580810546875,-0.097198486328125
1718292461281438700,40.341438720703124,0.4792022705078125,0.0574188232421875,0.190673828125
1718292461331210000,40.3912099609375,0.250885009765625,-0.0834808349609375,0.319549560546875
1718292461380980000,40.44097998046875,0.2200927734375,-0.28887939453125,0.3160400390625
1718292461430750000,40.49075,0.4121551513671875,0.0252838134765625,0.2438507080078125
1718292461480521000,40.54052099609375,0.687744140625,0.0761566162109375,0.1678619384765625
1718292461530291000,40.590291015625,0.940643310546875,0.6282806396484375,0.179840087890625
1718292461580061000,40.64006103515625,0.787689208984375,0.86260986328125,0.0031280517578125
1718292461629831000,40.68983081054687,1.0444488525390625,0.95068359375,0.0135498046875
1718292461679602000,40.73960180664063,1.1489105224609375,1.1856536865234375,0.0845947265625
1718292461729372000,40.78937182617187,1.323974609375,0.957244873046875,0.1720428466796875
1718292461779142000,40.839141845703125,0.9189300537109375,0.80755615234375,0.03192138671875
1718292461828913000,40.88891284179687,0.9566650390625,0.64642333984375,-0.2512664794921875
1718292461878683000,40.938682861328125,0.8887481689453125,0.769683837890625,-0.1460418701171875
1718292461928452900,40.98845288085938,1.033477783203125,0.898895263671875,0.2825775146484375
1718292461978222800,41.03822290039062,0.984893798828125,0.61273193359375,0.2964630126953125
1718292462027993900,41.08799389648438,0.6717681884765625,0.4607086181640625,0.122283935546875
1718292462077764000,41.13776416015625,0.8395233154296875,0.16668701171875,0.224212646484375
1718292462127533800,41.187533935546874,0.0376739501953125,-0.1209564208984375,0.255706787109375
1718292462177302000,41.237302001953125,0.2776336669921875,-0.23968505859375,0.2924652099609375
1718292462227073000,41.287072998046874,0.33514404296875,-0.250091552734375,0.2500457763671875
1718292462276843000,41.336843017578126,0.7482147216796875,0.0189971923828125,0.1173553466796875
1718292462326613000,41.38661303710938,0.9632110595703125,0.489501953125,0.0319061279296875
1718292462376383000,41.43638305664062,1.0373382568359375,0.9713592529296875,-0.0311737060546875
1718292462426153000,41.486153076171874,0.87286376953125,1.040924072265625,0.1662750244140625
1718292462475924000,41.53592407226562,0.9813079833984375,0.98992919921875,0.0693359375
1718292462525694200,41.585694091796874,1.2432403564453125,0.997955322265625,0.1156158447265625
1718292462575464000,41.6354638671875,0.9946746826171875,0.85809326171875,-0.06878662109375
1718292462625234200,41.68523413085938,1.0054473876953125,0.9904937744140625,-0.212738037109375
1718292462675005000,41.7350048828125,1.0655059814453125,0.9171905517578125,-0.0676727294921875
1718292462724775200,41.78477514648438,0.8011322021484375,0.8173065185546875,0.36383056640625
1718292462774545000,41.834544921875,0.9890594482421875,0.65673828125,0.3695220947265625
1718292462824315100,41.884315185546875,0.45220947265625,0.405914306640625,-0.1502532958984375
1718292462874086100,41.93408618164062,0.048492431640625,0.02716064453125,0.262481689453125
1718292462923856100,41.983856201171875,0.3925018310546875,-0.1746826171875,0.2563629150390625
1718292462973626000,42.03362622070313,0.2256011962890625,-0.195343017578125,0.23614501953125
1718292463023396000,42.08339599609375,0.4093780517578125,-0.232391357421875,0.108367919921875
1718292463073166000,42.133166015625,0.5991668701171875,0.1464080810546875,0.051300048828125
1718292463122937000,42.18293701171875,0.941497802734375,0.834564208984375,0.186370849609375
1718292463172707800,42.232707763671876,0.9069671630859375,1.0191650390625,0.0208892822265625
1718292463222477800,42.28247778320313,1.1317901611328125,1.09747314453125,0.1487884521484375
1718292463272247800,42.33224780273437,1.2986297607421875,1.3063507080078125,0.0997772216796875
1718292463322017800,42.382017822265624,0.920135498046875,0.8542938232421875,0.1037750244140625
1718292463371788800,42.43178881835937,0.8563385009765625,0.7238006591796875,-0.1073455810546875
1718292463421558800,42.481558837890624,0.9731292724609375,0.76788330078125,-0.1401519775390625
1718292463471328800,42.531328857421876,1.0967864990234375,0.8849334716796875,0.1047210693359375
1718292463521098800,42.5810986328125,1.0965118408203125,0.872406005859375,0.353851318359375
1718292463570868700,42.63086865234375,0.8923492431640625,0.52679443359375,0.0613555908203125
1718292463620639700,42.6806396484375,0.35931396484375,0.116973876953125,0.0134124755859375
1718292463670410000,42.73040991210937,0.291595458984375,0.03936767578125,0.1873931884765625
1718292463720179700,42.7801796875,0.336456298828125,-0.1299896240234375,0.3462371826171875
1718292463769950000,42.829949951171876,0.178802490234375,-0.324859619140625,0.28411865234375
1718292463819719700,42.8797197265625,0.5084381103515625,-0.0810699462890625,0.1526031494140625
1718292463869490000,42.92948999023437,0.542449951171875,0.222930908203125,-0.0058135986328125
1718292463919260700,42.9792607421875,0.75439453125,0.769622802734375,0.0205078125
1718292463969031000,43.02903100585937,1.1327056884765625,1.076690673828125,-0.0406036376953125
1718292464018800600,43.07880053710937,1.4998779296875,1.4087066650390625,0.2135162353515625
1718292464068571000,43.12857080078125,1.270965576171875,0.9738006591796875,-0.0156707763671875
1718292464118340600,43.17834057617188,0.6852874755859375,0.7703094482421875,-0.0655670166015625
1718292464168110300,43.2281103515625,0.8051605224609375,0.74652099609375,-0.00115966796875
1718292464217881300,43.27788134765625,0.9095916748046875,0.81500244140625,-0.063385009765625
1718292464267651600,43.32765161132812,1.091400146484375,1.0831451416015625,0.27886962890625
1718292464317421300,43.37742138671875,0.965362548828125,0.5959014892578125,0.331634521484375
1718292464367191600,43.427191650390625,0.624847412109375,0.4892425537109375,0.0252838134765625
1718292464416961500,43.47696142578125,0.9028472900390625,0.097137451171875,0.1393280029296875
1718292464466731500,43.5267314453125,0.2153778076171875,-0.1034393310546875,0.2554779052734375
1718292464516501500,43.57650146484375,0.191253662109375,-0.2749786376953125,0.279052734375
1718292464566272500,43.6262724609375,0.2639312744140625,-0.1912078857421875,0.2143096923828125
1718292464616042500,43.67604248046875,0.6264190673828125,0.103759765625,0.028564453125
1718292464665812500,43.7258125,0.7694549560546875,0.493621826171875,0.1645965576171875
1718292464715582500,43.77558251953125,0.9010009765625,1.0013580322265625,-0.0657958984375
1718292464765352400,43.8253525390625,1.27923583984375,1.1839752197265625,0.041290283203125
1718292464815122400,43.87512231445312,1.109954833984375,1.0792694091796875,0.1068115234375
1718292464864892400,43.924892333984374,1.0320892333984375,1.0419921875,-0.0820465087890625
1718292464914662400,43.974662353515626,0.9343719482421875,0.7177886962890625,0.0139923095703125
1718292464964433400,44.024433349609374,0.956817626953125,0.8166046142578125,-0.1936187744140625
1718292465014203600,44.07420361328125,0.959991455078125,0.846527099609375,0.11053466796875
1718292465063973400,44.12397338867188,1.126617431640625,0.7791748046875,0.3860626220703125
1718292465113743600,44.17374365234375,0.9727783203125,0.5919647216796875,0.111663818359375
1718292465163513600,44.223513671875,0.874481201171875,0.2989349365234375,-0.067108154296875
1718292465213283600,44.27328369140625,0.13092041015625,0.07440185546875,0.3516082763671875
1718292465263053600,44.32305346679688,0.0245361328125,-0.2325897216796875,0.05426025390625
1718292465312823600,44.37282348632812,0.2389678955078125,-0.2889251708984375,0.250213623046875
1718292465362594600,44.42259448242187,0.454345703125,-0.1346588134765625,0.1179046630859375
1718292465412364500,44.47236450195312,0.769561767578125,0.400177001953125,0.0406036376953125
1718292465462134500,44.522134521484375,0.9613800048828125,0.9682464599609375,0.045623779296875
1718292465511904500,44.57190454101563,1.1568603515625,1.130706787109375,0.2458648681640625
1718292465561674500,44.62167456054687,0.9868621826171875,0.980804443359375,-0.03814697265625
1718292465611444500,44.67144458007812,1.0371551513671875,0.9914093017578125,0.026702880859375
1718292465661214500,44.72121435546875,1.1340484619140625,1.0201873779296875,0.057647705078125
1718292465710984400,44.770984375,1.069610595703125,0.8164520263671875,-0.062286376953125
1718292465760754700,44.82075463867187,0.792388916015625,0.759979248046875,-0.287200927734375
1718292465810524400,44.8705244140625,1.2294464111328125,0.8336334228515625,0.3743743896484375
1718292465860295400,44.92029541015625,1.0162811279296875,0.8274383544921875,0.1708984375
1718292465910065700,44.970065673828124,1.0084381103515625,0.151397705078125,0.005889892578125
1718292465959835600,45.019835693359376,-0.0745849609375,0.0034637451171875,0.0993194580078125
1718292466009605600,45.06960571289063,0.222320556640625,-0.40594482421875,0.078125
1718292466059375600,45.11937573242187,0.3186798095703125,-0.407958984375,0.3324432373046875
1718292466109145600,45.1691455078125,0.6703948974609375,0.1538238525390625,0.1702728271484375
1718292466158915600,45.21891552734375,0.675048828125,0.1092987060546875,0.081878662109375
1718292466208685600,45.268685546875,0.670806884765625,0.7526702880859375,-0.026702880859375
1718292466258455800,45.31845581054687,1.0395050048828125,1.1622772216796875,0.118011474609375
1718292466308225500,45.3682255859375,1.2440338134765625,1.4464569091796875,0.126251220703125
1718292466357995800,45.417995849609376,0.9163818359375,0.7251129150390625,0.171478271484375
1718292466407765500,45.467765625,0.8543548583984375,0.7825775146484375,-0.0150299072265625
1718292466457535700,45.51753564453125,0.7490997314453125,0.6824951171875,-0.130523681640625
1718292466507306500,45.567306396484376,0.9244232177734375,0.7551116943359375,-0.187835693359375
1718292466557076700,45.61707666015625,1.045928955078125,0.7597503662109375,0.323272705078125
1718292466606846500,45.66684643554687,1.39532470703125,1.157379150390625,0.152496337890625
1718292466656616700,45.71661669921875,0.6715545654296875,0.64251708984375,0.0715179443359375
1718292466706386700,45.76638671875,0.3236846923828125,0.08221435546875,0.024871826171875
1718292466756156700,45.81615673828125,0.147247314453125,0.0069732666015625,0.147552490234375
1718292466805927000,45.865927001953125,0.2088165283203125,-0.1610107421875,0.187652587890625
1718292466855696600,45.915696533203125,0.4983978271484375,-0.3045806884765625,0.335205078125
1718292466905467000,45.965466796875,0.695831298828125,-0.072265625,0.1688690185546875
1718292466955236600,46.01523657226563,0.7219696044921875,0.1782684326171875,0.0463714599609375
1718292467005006800,46.0650068359375,0.652496337890625,0.5612640380859375,-0.0938873291015625
1718292467054776600,46.114776611328125,0.84765625,0.709381103515625,-0.0346832275390625
1718292467104546800,46.164546875,1.1959991455078125,1.1078948974609375,0.123779296875
1718292467154316500,46.21431665039062,1.1385498046875,1.0092010498046875,0.12799072265625
1718292467204086300,46.26408618164062,1.14935302734375,1.239898681640625,-0.0761871337890625
1718292467253856500,46.3138564453125,0.8819427490234375,0.7941741943359375,0.030120849609375
1718292467303626200,46.363626220703125,0.7441558837890625,0.7779998779296875,-0.027069091796875
1718292467353396500,46.413396484375,0.965118408203125,0.72906494140625,-0.00238037109375
1718292467403166200,46.46316625976562,0.982940673828125,0.916473388671875,0.299163818359375
1718292467452936400,46.5129365234375,0.8852081298828125,0.694793701171875,0.191162109375
1718292467502706200,46.5627060546875,0.7176055908203125,0.197662353515625,0.0425262451171875
1718292467552477400,46.6124775390625,0.7540130615234375,-0.096649169921875,0.2917327880859375
1718292467602247200,46.6622470703125,0.372344970703125,-0.0998077392578125,0.3404541015625
1718292467652017400,46.71201733398438,0.2331695556640625,-0.241851806640625,0.22564697265625
1718292467701787100,46.761787109375,0.1871490478515625,-0.1639251708984375,0.1896209716796875
1718292467751557400,46.811557373046874,0.571533203125,0.15399169921875,0.12457275390625
1718292467801327000,46.8613271484375,0.7851104736328125,0.4515838623046875,0.01678466796875
1718292467851097300,46.91109741210938,1.088714599609375,0.978515625,0.017822265625
1718292467900867300,46.96086743164062,1.132965087890625,1.1177978515625,0.1045684814453125
1718292467950637300,47.01063720703125,1.0604248046875,0.9785003662109375,-0.0281524658203125
1718292468000407300,47.0604072265625,1.038482666015625,0.8336181640625,0.1052398681640625
1718292468050177300,47.11017724609375,0.9849395751953125,0.897308349609375,-0.0345916748046875
1718292468099947300,47.159947265625,0.94482421875,0.8487396240234375,-0.140960693359375
1718292468149717200,47.20971728515625,0.923248291015625,0.826324462890625,-0.2374114990234375
1718292468199488000,47.25948803710938,1.0447845458984375,0.7524566650390625,0.3485260009765625
1718292468249258000,47.30925805664062,0.8973388671875,0.703704833984375,0.371917724609375
1718292468299028000,47.359028076171874,0.889739990234375,0.36602783203125,0.0542449951171875
1718292468348798000,47.4087978515625,0.4508819580078125,0.184356689453125,0.0947723388671875
1718292468398568000,47.45856787109375,0.19732666015625,-0.071746826171875,0.3194122314453125
1718292468448338000,47.508337890625,0.132598876953125,-0.420562744140625,0.2239532470703125
1718292468498108000,47.55810791015625,0.298980712890625,-0.1980438232421875,0.2729949951171875
1718292468547878100,47.60787817382813,0.5759735107421875,0.0386199951171875,0.0189971923828125
1718292468597648000,47.65764794921875,0.7629241943359375,0.73846435546875,-0.0902099609375
1718292468647418000,47.70741821289062,0.840606689453125,0.9976806640625,0.04595947265625
1718292468697187800,47.75718774414062,1.1794281005859375,0.8975677490234375,0.16021728515625
1718292468746958000,47.8069580078125,1.192291259765625,1.15826416015625,-0.056549072265625
1718292468796727800,47.85672778320313,1.0823974609375,0.8921356201171875,0.0756378173828125
1718292468846497000,47.9064970703125,0.833404541015625,0.728485107421875,0.0285491943359375
1718292468896267000,47.95626708984375,0.73687744140625,0.857818603515625,-0.043487548828125
1718292468946037000,48.006037109375,1.0270843505859375,1.0682525634765625,0.01422119140625
1718292468995807000,48.05580688476562,1.210205078125,0.92742919921875,0.4991302490234375
1718292469045577000,48.105576904296875,0.589569091796875,0.546295166015625,0.1511077880859375
1718292469095347000,48.15534692382813,0.53955078125,0.2511444091796875,-0.0189056396484375
1718292469145117000,48.20511694335938,0.462310791015625,-0.02496337890625,0.1495819091796875
1718292469194887200,48.25488720703125,0.3501739501953125,-0.1465606689453125,0.352325439453125
1718292469244657200,48.3046572265625,0.4484100341796875,-0.39385986328125,0.27862548828125
1718292469294427100,48.35442724609375,0.51318359375,0.01324462890625,0.1891021728515625
1718292469344197400,48.404197265625,0.4763336181640625,0.1581268310546875,-0.07073974609375
1718292469393967000,48.45396704101562,0.9548797607421875,0.71112060546875,-0.132843017578125
1718292469443737300,48.5037373046875,1.13763427734375,1.1807861328125,0.1453704833984375
1718292469493507000,48.55350708007813,1.1722259521484375,0.9668121337890625,0.2542266845703125
1718292469543277300,48.60327734375,1.2509918212890625,1.010986328125,0.041534423828125
1718292469593047000,48.65304711914062,1.07098388671875,0.9135894775390625,-0.0299072265625
1718292469642817300,48.7028173828125,0.8237762451171875,0.8278350830078125,-0.112701416015625
1718292469692587300,48.75258715820313,1.1160736083984375,0.970245361328125,-0.0837249755859375
1718292469742357200,48.80235717773437,0.9420623779296875,0.7205352783203125,0.3108978271484375
1718292469792127200,48.852127197265624,0.9725189208984375,0.807281494140625,0.2365570068359375
1718292469841897200,48.901897216796876,0.5823974609375,0.1723480224609375,-0.1058502197265625
1718292469891667200,48.95166723632813,0.5157318115234375,0.207366943359375,0.1464385986328125
1718292469941436400,49.0014365234375,0.2109375,-0.2290191650390625,0.2827606201171875
1718292469991206100,49.0512060546875,0.402801513671875,-0.279998779296875,0.26812744140625
1718292470040976400,49.10097631835937,0.8065643310546875,0.0044708251953125,0.290283203125
1718292470090746000,49.15074609375,1.0229644775390625,0.3078765869140625,0.128875732421875
1718292470140516400,49.200516357421876,0.946044921875,0.2000732421875,0.1577301025390625
1718292470190285800,49.250285888671876,0.9495086669921875,0.291259765625,0.2461700439453125
1718292470240055800,49.30005590820313,0.97259521484375,0.6107025146484375,0.0939483642578125
1718292470289825800,49.34982568359375,0.769439697265625,0.5057220458984375,-0.0072479248046875
1718292470339595800,49.399595703125,0.80267333984375,0.7059783935546875,0.07147216796875
1718292470389366000,49.449365966796876,0.874969482421875,0.6886138916015625,0.1376953125
1718292470439135700,49.4991357421875,0.7939453125,0.6817474365234375,0.0751953125
1718292470488906000,49.54890600585937,0.978485107421875,0.7769622802734375,0.0974273681640625
1718292470538675700,49.59867578125,0.8721466064453125,0.6930694580078125,0.0653839111328125
1718292470588446000,49.648446044921876,0.839324951171875,0.6581268310546875,-0.0105743408203125
1718292470638215700,49.698215576171876,0.5637969970703125,0.5887298583984375,0.069366455078125
1718292470687984600,49.747984619140624,0.8542022705078125,0.76934814453125,-0.061279296875
1718292470737755000,49.7977548828125,0.751068115234375,0.70892333984375,0.0919342041015625
1718292470787524600,49.84752465820313,0.6705322265625,0.7135162353515625,0.0337066650390625
1718292470837294800,49.897294921875,0.602813720703125,0.5886688232421875,0.0225982666015625
1718292470887064600,49.947064697265624,0.6638031005859375,0.6010894775390625,0.1999969482421875
1718292470936834800,49.996834716796876,0.7689971923828125,0.72247314453125,0.032073974609375
1718292470986604800,50.04660473632813,0.7073822021484375,0.7295074462890625,0.1077117919921875
1718292471036374800,50.09637475585937,0.6484222412109375,0.588592529296875,0.00189208984375
1718292471086145000,50.14614501953125,0.6508636474609375,0.568817138671875,0.038330078125
1718292471135914800,50.195914794921876,0.772735595703125,0.6868896484375,-0.0005340576171875
1718292471185685200,50.24568530273437,0.5843963623046875,0.6573638916015625,0.0346832275390625
1718292471235455000,50.295455078125,0.6939697265625,0.7193145751953125,0.038970947265625
1718292471285224000,50.34522387695313,0.553375244140625,0.564605712890625,0.023345947265625
1718292471334994200,50.394994140625,1.08172607421875,0.9966888427734375,0.3038330078125
1718292471384764000,50.444763916015624,0.4782562255859375,0.928558349609375,-0.0018157958984375
1718292471434534100,50.4945341796875,0.233795166015625,0.130584716796875,-0.0213775634765625
1718292471484304000,50.54430395507813,0.428619384765625,0.7900390625,-0.20611572265625
1718292471534074000,50.59407421875,0.8528900146484375,0.7073974609375,0.12054443359375
1718292471583843800,50.64384375,0.4033966064453125,0.228424072265625,0.48486328125
1718292471633614000,50.693614013671876,-0.2150726318359375,2.2525634765625,-0.757232666015625
1718292471683384000,50.74338403320313,0.45135498046875,0.8653411865234375,0.291259765625
1718292471733154000,50.79315405273437,0.384552001953125,0.23193359375,-0.274169921875
1718292471782924300,50.84292431640625,0.516448974609375,0.625823974609375,0.055023193359375
1718292471832693000,50.89269287109375,0.562591552734375,0.7763519287109375,0.296478271484375
1718292471882463000,50.942462890625,0.7645416259765625,0.7852325439453125,0.122467041015625
1718292471932233200,50.992233154296876,0.7566986083984375,0.9374542236328125,-0.197052001953125
1718292471982003000,51.0420029296875,0.95098876953125,0.887420654296875,0.0431365966796875
1718292472031773200,51.09177319335937,0.8655853271484375,0.7309417724609375,0.0366668701171875
1718292472081543000,51.14154296875,0.554443359375,0.831268310546875,-0.0435638427734375
1718292472131313200,51.19131323242188,0.3795623779296875,0.695281982421875,-0.007568359375
1718292472181083100,51.24108325195313,0.608551025390625,0.82904052734375,0.0386505126953125
1718292472230853000,51.29085302734375,0.467071533203125,0.65606689453125,0.0204315185546875
1718292472280623000,51.340623046875,0.55267333984375,0.68115234375,0.2062225341796875
1718292472330393000,51.39039306640625,0.888763427734375,0.9978485107421875,0.120880126953125
1718292472380163000,51.4401630859375,0.8027496337890625,1.1847076416015625,0.0115509033203125
1718292472429932000,51.48993212890625,0.697296142578125,0.912872314453125,-0.0778656005859375
1718292472479702300,51.53970239257813,0.52471923828125,0.6135711669921875,0.1264190673828125
1718292472529472000,51.58947192382813,0.553924560546875,0.5308685302734375,0.09356689453125
1718292472579242200,51.6392421875,1.05462646484375,0.89453125,0.0171051025390625
1718292472629012200,51.68901220703125,1.15087890625,1.149810791015625,0.0635223388671875
1718292472678782200,51.7387822265625,1.013153076171875,0.8943939208984375,0.19317626953125
1718292472728552200,51.78855224609375,0.912567138671875,0.5227508544921875,0.0614776611328125
1718292472778322200,51.838322265625,0.41680908203125,0.5176239013671875,0.1678619384765625
1718292472828092200,51.888092041015625,0.8988494873046875,0.1492767333984375,0.1482086181640625
1718292472877862100,51.93786206054688,0.768768310546875,0.335205078125,0.1181182861328125
1718292472927632100,51.98763208007812,0.76971435546875,-0.01434326171875,0.451202392578125
1718292472977401300,52.0374013671875,0.259033203125,-0.233306884765625,0.0830078125
1718292473027171000,52.08717114257813,0.278778076171875,-0.2458953857421875,0.2736053466796875
1718292473076941300,52.13694140625,0.2864990234375,0.009552001953125,0.1466522216796875
1718292473126711000,52.1867109375,1.122344970703125,0.289398193359375,-0.1065216064453125
1718292473176480300,52.23648022460937,0.9518280029296875,0.7281341552734375,0.1069488525390625
1718292473226250500,52.28625048828125,0.778289794921875,0.930877685546875,0.3394317626953125
1718292473276020200,52.33602026367188,0.855010986328125,0.97735595703125,0.0029296875
1718292473325790500,52.38579052734375,1.206390380859375,1.0092926025390625,-0.064666748046875
1718292473375560200,52.43556030273437,1.0827484130859375,0.79986572265625,0.06805419921875
1718292473425330400,52.485330322265625,0.94775390625,0.90093994140625,-0.1143341064453125
1718292473475099400,52.53509936523437,0.7684478759765625,0.690460205078125,-0.0106201171875
1718292473524869000,52.584869140625,1.4076995849609375,1.205718994140625,0.05712890625
1718292473574639400,52.63463940429688,0.947967529296875,0.8929443359375,0.0729522705078125
1718292473624409000,52.6844091796875,0.1921844482421875,0.286468505859375,0.161468505859375
1718292473674179300,52.73417944335937,1.1959075927734375,0.5638580322265625,0.3017120361328125
1718292473723949300,52.78394921875,0.6261138916015625,-0.0430755615234375,-0.05926513671875
1718292473773719300,52.83371923828125,0.4540557861328125,-0.0875396728515625,0.379730224609375
1718292473823489300,52.8834892578125,0.3615570068359375,-0.137847900390625,0.2066802978515625
1718292473873259300,52.93325927734375,-0.0645294189453125,-0.442352294921875,0.101165771484375
1718292473923029500,52.983029541015625,0.861602783203125,0.22998046875,0.0391082763671875
1718292473972799200,53.03279931640625,1.011932373046875,0.6334228515625,0.055328369140625
1718292474022568200,53.08256811523437,1.0645904541015625,1.112518310546875,-0.0007781982421875
1718292474072338400,53.13233837890625,1.04974365234375,0.9681243896484375,-0.0030975341796875
1718292474122108200,53.18210815429688,0.836181640625,0.860931396484375,0.162506103515625
1718292474171879200,53.231879150390625,1.2131500244140625,0.856292724609375,0.1068878173828125
1718292474221649200,53.28164916992188,0.811767578125,0.7576751708984375,0.0565185546875
1718292474271419100,53.33141918945312,0.8453369140625,0.921966552734375,-0.1259765625
1718292474321189000,53.381189208984374,1.1414794921875,0.838134765625,0.05645751953125
1718292474370959000,53.430958984375,0.8495635986328125,0.8342742919921875,0.20733642578125
1718292474420729000,53.48072900390625,0.95556640625,0.617401123046875,0.2443084716796875
1718292474470499000,53.5304990234375,0.736663818359375,0.3554840087890625,0.14837646484375
1718292474520268000,53.58026806640625,0.9354705810546875,0.36212158203125,0.1659393310546875
1718292474570038000,53.6300380859375,0.1470489501953125,-0.0322265625,0.1532745361328125
1718292474619808000,53.67980810546875,0.188995361328125,-0.4640045166015625,0.253021240234375
1718292474669578000,53.729577880859374,0.1004791259765625,-0.143218994140625,0.2869720458984375
1718292474719348000,53.779347900390626,0.507415771484375,0.0283660888671875,0.2244415283203125
1718292474769118000,53.82911791992188,0.9319000244140625,0.2733612060546875,-0.040740966796875
1718292474818888000,53.87888793945312,1.0415496826171875,0.87890625,0.0079498291015625
1718292474868658200,53.928658203125,1.0166473388671875,1.00201416015625,-0.09893798828125
1718292474918428000,53.978427978515626,1.0975341796875,1.01898193359375,0.1326751708984375
1718292474968198100,54.0281982421875,1.268524169921875,1.0274658203125,0.1407470703125
1718292475017967000,54.077967041015626,0.803924560546875,0.8612213134765625,-0.0236053466796875
1718292475067737000,54.12773706054688,0.8877716064453125,0.8429412841796875,-0.0050048828125
1718292475117507000,54.17750708007812,0.9416046142578125,0.82159423828125,-0.2420806884765625
1718292475167277000,54.227277099609374,0.9927520751953125,0.8741455078125,0.2175140380859375
1718292475217046800,54.277046875,1.0475006103515625,0.6986541748046875,0.25091552734375
1718292475266816800,54.326816650390626,0.9077911376953125,0.62213134765625,0.135589599609375
1718292475316586800,54.37658666992188,0.5403594970703125,0.2160797119140625,-0.0585174560546875
1718292475366356700,54.42635668945312,0.421661376953125,-0.0694580078125,0.29144287109375
1718292475416127000,54.476126953125,-0.0294189453125,-0.363037109375,0.263336181640625
1718292475465897000,54.52589697265625,0.2574615478515625,-0.326385498046875,0.2576751708984375
1718292475515667000,54.5756669921875,0.5880584716796875,-0.0183563232421875,0.194915771484375
1718292475565436000,54.625435791015626,0.851837158203125,0.4932403564453125,-0.077178955078125
1718292475615206000,54.67520581054688,0.6333770751953125,0.61578369140625,-0.1669921875
1718292475664976000,54.72497583007812,0.9003448486328125,1.042022705078125,0.026336669921875
1718292475714745900,54.774745849609374,1.107391357421875,0.9860687255859375,0.0980987548828125
1718292475764515800,54.824515869140626,1.2833099365234375,1.412872314453125,0.19329833984375
1718292475814285800,54.87428588867188,0.9201812744140625,0.78924560546875,-0.0773773193359375
1718292475864055800,54.92405590820312,0.6105499267578125,0.72540283203125,0.046630859375
1718292475913825800,54.97382568359375,0.9731903076171875,0.7489776611328125,-0.0632781982421875
1718292475963595800,55.023595703125,1.153656005859375,1.2079620361328125,0.22998046875
1718292476013364700,55.07336474609375,1.0618133544921875,0.7896728515625,0.2717132568359375
1718292476063135000,55.123135009765626,0.6218109130859375,0.508148193359375,0.3797607421875
1718292476112904700,55.17290478515625,0.445098876953125,0.185821533203125,0.032196044921875
1718292476162675000,55.22267504882812,0.0462188720703125,-0.008148193359375,0.1290435791015625
1718292476212444400,55.2724443359375,0.344573974609375,-0.3052215576171875,0.266632080078125
1718292476262214400,55.32221435546875,0.5951385498046875,-0.3176116943359375,0.2108306884765625
1718292476311984600,55.371984619140626,0.6902008056640625,0.1478118896484375,0.3217620849609375
1718292476361754400,55.42175439453125,0.7322235107421875,0.55322265625,0.0339508056640625
1718292476411524600,55.47152465820312,0.719696044921875,0.6563873291015625,-0.056854248046875
1718292476461294300,55.52129443359375,1.142913818359375,1.2419586181640625,0.186920166015625
1718292476511063300,55.57106323242188,1.219451904296875,1.0745391845703125,0.17706298828125
1718292476560833500,55.62083349609375,1.052032470703125,1.0389404296875,-0.070220947265625
1718292476610603300,55.670603271484374,0.9747467041015625,0.85089111328125,-0.0918426513671875
1718292476660373500,55.72037353515625,0.6966552734375,0.6899566650390625,0.0005035400390625
1718292476710143200,55.77014331054688,1.4735870361328125,1.1083526611328125,-0.080047607421875
1718292476759913500,55.81991357421875,0.8719024658203125,0.68402099609375,0.0984954833984375
1718292476809683200,55.86968310546875,0.84686279296875,0.7096405029296875,0.2654571533203125
1718292476859453400,55.919453369140626,0.5674285888671875,0.377227783203125,0.0559234619140625
1718292476909223400,55.96922338867188,0.4027557373046875,0.0554962158203125,0.1249237060546875
1718292476958992400,56.018992431640626,0.518402099609375,-0.236572265625,0.179534912109375
1718292477008762400,56.06876245117188,0.2171630859375,-0.2606658935546875,0.2603302001953125
1718292477058532400,56.11853247070312,0.4260101318359375,-0.01214599609375,0.0401611328125
1718292477108302300,56.16830224609375,0.769287109375,0.213470458984375,-0.19757080078125
1718292477158072600,56.218072509765626,0.7825469970703125,0.8935699462890625,-0.1023406982421875
1718292477207842800,56.2678427734375,1.32684326171875,1.3840789794921875,0.18402099609375
1718292477257613000,56.317613037109375,1.198150634765625,1.250091552734375,0.217254638671875
1718292477307382800,56.3673828125,1.274139404296875,1.00604248046875,-0.050811767578125
1718292477357153000,56.41715307617188,0.5970306396484375,0.6121978759765625,0.0172882080078125
1718292477406922000,56.466921875,0.8649749755859375,0.7367401123046875,0.056976318359375
1718292477456692000,56.51669189453125,1.4618377685546875,1.3585052490234375,0.0574951171875
1718292477506462000,56.5664619140625,0.8496246337890625,0.75579833984375,0.137298583984375
1718292477556232000,56.61623193359375,0.913726806640625,0.67169189453125,0.2325592041015625
1718292477606002000,56.666001953125,0.2776031494140625,0.1259002685546875,-0.0441436767578125
1718292477655772000,56.71577197265625,0.4757843017578125,-0.087982177734375,0.1701812744140625
1718292477705542000,56.7655419921875,0.24200439453125,-0.1875152587890625,0.2121124267578125
1718292477755311900,56.81531176757812,0.20184326171875,-0.254547119140625,0.315338134765625
1718292477805080800,56.86508081054688,0.3976287841796875,-0.040496826171875,-0.1155853271484375
1718292477854851000,56.91485107421875,0.4973297119140625,0.5059356689453125,0.0625
1718292477904620800,56.964620849609375,0.905120849609375,0.847900390625,-0.1320343017578125
1718292477954391000,57.01439111328125,1.331787109375,1.339447021484375,0.1710205078125
1718292478004160800,57.06416088867188,1.26629638671875,1.1363525390625,0.1843109130859375
1718292478053931000,57.11393090820312,1.0866851806640625,0.93731689453125,-0.0135498046875
1718292478103701000,57.163700927734375,0.9443359375,0.73468017578125,-0.023162841796875
1718292478153471000,57.21347094726563,0.9531097412109375,1.0284423828125,0.117828369140625
1718292478203240400,57.26324047851563,0.88873291015625,0.873321533203125,-0.030303955078125
1718292478253009400,57.313009521484375,0.9989471435546875,1.015716552734375,0.193817138671875
1718292478302779400,57.362779296875,0.69757080078125,0.224822998046875,0.2156524658203125
1718292478352549400,57.41254931640625,0.818939208984375,0.285400390625,0.15728759765625
1718292478402319400,57.4623193359375,0.09857177734375,-0.029541015625,0.0023040771484375
1718292478452089600,57.512089599609375,0.028717041015625,-0.3154296875,0.380584716796875
1718292478501859300,57.561859375,0.8754730224609375,-0.1330718994140625,0.2197113037109375
1718292478551629600,57.61162963867187,0.8493804931640625,0.252716064453125,0.2416839599609375
1718292478601399300,57.6613994140625,0.9705352783203125,0.34014892578125,0.089569091796875
1718292478651168300,57.71116821289063,0.86737060546875,0.324493408203125,0.109771728515625
1718292478700938500,57.7609384765625,1.2472381591796875,0.420501708984375,0.218658447265625
1718292478750708200,57.81070825195312,0.9058990478515625,0.406585693359375,0.0785675048828125
1718292478800478500,57.860478515625,0.58831787109375,0.6021881103515625,0.060760498046875
1718292478850248400,57.91024853515625,1.3519744873046875,0.729095458984375,0.133544921875
1718292478900018400,57.96001831054687,0.873382568359375,0.8189697265625,0.0854339599609375
1718292478949788400,58.00978833007812,0.4664764404296875,0.5095367431640625,0.009674072265625
1718292478999558400,58.059558349609375,0.7180938720703125,0.324249267578125,0.1842803955078125
1718292479049328400,58.10932836914063,1.10382080078125,0.7127685546875,0.18060302734375
1718292479099097600,58.15909765625,0.9302215576171875,1.153045654296875,0.0235595703125
1718292479148867300,58.20886743164063,0.712432861328125,0.6636505126953125,0.1152191162109375
1718292479198638000,58.25863818359375,0.432861328125,0.28094482421875,-0.1126861572265625
1718292479248407800,58.30840771484375,0.8869476318359375,0.65716552734375,-0.0803985595703125
1718292479298178000,58.35817797851563,1.240478515625,1.0878448486328125,0.057281494140625
1718292479347947800,58.40794775390625,0.236480712890625,0.5400390625,0.11346435546875
1718292479397718000,58.457718017578124,0.6981353759765625,0.7209014892578125,0.0396881103515625
1718292479447487000,58.50748706054687,0.635040283203125,0.5970306396484375,0.218017578125
1718292479497257000,58.557257080078124,1.104248046875,0.955322265625,-0.01715087890625
1718292479547027000,58.60702685546875,0.511688232421875,0.6687774658203125,-0.0254669189453125
1718292479596797000,58.656796875,0.5628204345703125,0.599578857421875,-0.015594482421875
1718292479646567000,58.70656689453125,0.4298858642578125,0.437957763671875,0.082244873046875
1718292479696337000,58.7563369140625,0.650634765625,0.7469940185546875,0.178985595703125
1718292479746107000,58.80610693359375,1.103729248046875,1.0454254150390625,0.078033447265625
1718292479795876900,58.855876953125,0.8007049560546875,0.9379425048828125,0.2021331787109375
1718292479845645800,58.905645751953124,0.522125244140625,0.4126129150390625,-0.0514373779296875
1718292479895416000,58.955416015625,0.6021575927734375,0.552490234375,0.04913330078125
1718292479945185800,59.00518579101563,0.4786529541015625,0.5015106201171875,0.0447845458984375
1718292479994956000,59.0549560546875,0.9912872314453125,1.1725616455078125,0.052398681640625
1718292480044726000,59.10472607421875,0.58807373046875,0.731964111328125,0.0762939453125
1718292480094496000,59.15449609375,0.748260498046875,0.61590576171875,-0.00628662109375
1718292480144266000,59.20426586914063,0.56317138671875,0.5435791015625,0.0599517822265625
1718292480194035000,59.254034912109375,0.9611358642578125,0.8201446533203125,0.0349578857421875
1718292480243804200,59.30380419921875,0.3119354248046875,0.6185760498046875,-0.055084228515625
1718292480293574100,59.35357421875,0.7671661376953125,0.8739166259765625,0.0046539306640625
1718292480343344000,59.40334423828125,0.8218231201171875,0.77923583984375,-0.0407257080078125
1718292480393114000,59.45311401367187,0.9589385986328125,0.6473236083984375,0.0602569580078125
1718292480442884000,59.502884033203124,0.521881103515625,0.6215057373046875,-0.068023681640625
1718292480492654000,59.552654052734376,0.364898681640625,0.5101165771484375,0.24591064453125
1718292480542424300,59.60242431640625,0.9212188720703125,0.914642333984375,-0.1300506591796875
1718292480592194000,59.65219409179687,0.616485595703125,0.6810302734375,0.210845947265625
1718292480641963000,59.701962890625,0.9359893798828125,0.9733734130859375,-0.1114349365234375
1718292480691733200,59.75173315429687,0.648956298828125,0.727264404296875,0.2088775634765625
1718292480741503000,59.8015029296875,0.473236083984375,0.4672088623046875,-0.0405426025390625
1718292480791273200,59.851273193359376,0.5188446044921875,0.7129058837890625,0.182525634765625
1718292480841043000,59.90104296875,0.7933349609375,0.5989990234375,0.03955078125
1718292480890813200,59.95081323242187,0.913299560546875,0.8941192626953125,-0.0356903076171875
1718292480940583000,60.0005830078125,0.9270172119140625,1.0917205810546875,-0.056793212890625
1718292480990352100,60.05035205078125,0.4930419921875,0.4884185791015625,0.0712890625
1718292481040122000,60.1001220703125,0.45013427734375,0.6023406982421875,0.0849609375
1718292481089892000,60.14989208984375,0.2943878173828125,0.3167724609375,0.0713348388671875
1718292481139662000,60.199662109375,1.335968017578125,1.1400146484375,0.131134033203125
1718292481189432300,60.24943237304687,0.7633514404296875,0.78717041015625,-0.07049560546875
1718292481239202600,60.29920263671875,0.733001708984375,1.0887451171875,-0.138824462890625
1718292481288972300,60.34897216796875,0.5187530517578125,0.540771484375,0.1287078857421875
1718292481338742500,60.39874243164063,0.6107635498046875,0.5843505859375,-0.0014801025390625
1718292481388511500,60.448511474609376,0.7175445556640625,0.8203887939453125,0.2716217041015625
1718292481438281500,60.49828149414063,1.0646514892578125,1.029693603515625,0.00299072265625
1718292481488051500,60.54805151367187,0.7563629150390625,1.037811279296875,0.1231536865234375
1718292481537821400,60.597821533203124,1.02227783203125,0.9900360107421875,-0.06085205078125
1718292481587591400,60.64759130859375,0.77294921875,0.7288818359375,0.2269287109375
1718292481637361400,60.697361328125,0.9118804931640625,0.4627227783203125,0.0960845947265625
1718292481687131400,60.74713134765625,0.884765625,0.4180755615234375,0.1736297607421875
1718292481736900400,60.796900390625,0.828765869140625,0.536773681640625,0.25579833984375
1718292481786670300,60.84667041015625,0.3402862548828125,-0.315948486328125,0.1571044921875
1718292481836440300,60.8964404296875,-0.1990814208984375,-0.35791015625,0.129302978515625
1718292481886210600,60.94621044921875,0.286224365234375,-0.19256591796875,0.238067626953125
1718292481935980300,60.995980224609376,0.5371856689453125,0.099456787109375,0.032562255859375
1718292481985750500,61.04575048828125,1.52801513671875,0.7613372802734375,-0.2000732421875
1718292482035520300,61.09552026367187,0.6526641845703125,1.0582275390625,0.26190185546875
1718292482085289500,61.14528955078125,1.13201904296875,1.1513824462890625,0.3910675048828125
1718292482135059500,61.1950595703125,1.0216064453125,0.8670654296875,-0.0853729248046875
1718292482184830000,61.244829833984376,0.9247894287109375,0.7408294677734375,0.243255615234375
1718292482234600200,61.29460009765625,1.1951141357421875,1.1092071533203125,0.0430908203125
1718292482284370000,61.34436987304687,0.571502685546875,0.6450042724609375,0.1105804443359375
1718292482334140200,61.39414013671875,0.4105072021484375,1.1760101318359375,-0.49224853515625
1718292482383910000,61.443909912109376,1.359130859375,1.0626220703125,0.294097900390625
1718292482433678800,61.493678955078124,0.99163818359375,0.3677978515625,0.10662841796875
1718292482483449000,61.543448974609376,0.853759765625,0.811187744140625,0.239990234375
1718292482533218800,61.59321875,-0.000152587890625,-0.207427978515625,0.1221923828125
1718292482582989000,61.64298901367187,-0.114776611328125,-0.4254608154296875,0.3824920654296875
1718292482632758800,61.6927587890625,-0.0882568359375,-0.3498687744140625,0.115753173828125
1718292482682529000,61.742529052734376,1.6086883544921875,0.4428558349609375,-0.11175537109375
1718292482732299000,61.79229907226563,0.4954376220703125,0.6492156982421875,0.0009613037109375
1718292482782068000,61.84206787109375,0.8279266357421875,0.592041015625,0.5296478271484375
1718292482831838000,61.891837890625,1.0905303955078125,0.807891845703125,0.098541259765625
1718292482881608000,61.94160791015625,1.1888580322265625,0.99017333984375,-0.1852569580078125
1718292482931378000,61.9913779296875,0.8471221923828125,0.9200439453125,0.2827911376953125
1718292482981148000,62.04114794921875,1.03131103515625,0.8614654541015625,-0.0867462158203125
1718292483030918000,62.09091796875,0.4932708740234375,0.7227325439453125,0.023681640625
1718292483080687900,62.14068798828125,0.6635894775390625,0.5569000244140625,0.0444488525390625
1718292483130456800,62.190456787109376,0.7895660400390625,0.6790008544921875,0.24114990234375
1718292483180226600,62.2402265625,0.8939666748046875,0.7322540283203125,0.05157470703125
1718292483229996500,62.28999658203125,0.951568603515625,0.9400634765625,0.1412811279296875
1718292483279766500,62.3397666015625,0.9597625732421875,0.809783935546875,0.2177581787109375
1718292483329536500,62.38953662109375,0.68890380859375,0.4602203369140625,-0.0467681884765625
1718292483379306500,62.439306396484376,0.94146728515625,0.5131683349609375,0.1438140869140625
1718292483429076700,62.48907666015625,1.2201690673828125,0.40362548828125,0.376007080078125
1718292483478846500,62.53884643554687,1.146240234375,0.6397247314453125,0.20001220703125
1718292483528615400,62.58861547851563,0.62298583984375,0.1807098388671875,0.262664794921875
1718292483578385700,62.6383857421875,0.09234619140625,-0.36322021484375,0.1783599853515625
1718292483628155400,62.6881552734375,0.1326446533203125,-0.4577484130859375,0.2167205810546875
1718292483677925600,62.737925537109376,1.0736236572265625,-0.3012847900390625,0.24090576171875
1718292483727695400,62.7876953125,1.0606689453125,0.994049072265625,0.1107025146484375
1718292483777465600,62.83746557617187,0.7083282470703125,0.133514404296875,-0.0550689697265625
1718292483827234600,62.88723461914063,0.4505462646484375,0.6596832275390625,0.0217742919921875
1718292483877004500,62.93700463867187,1.0144500732421875,1.0047760009765625,0.2525787353515625
1718292483926774500,62.9867744140625,1.2094268798828125,1.0942840576171875,0.177093505859375
1718292483976544500,63.03654443359375,1.0034942626953125,0.9852447509765625,-0.0074920654296875
1718292484026314500,63.086314453125,1.0258941650390625,0.9648284912109375,0.0479888916015625
1718292484076084700,63.13608471679687,0.703887939453125,0.671478271484375,-0.0437774658203125
1718292484125854500,63.1858544921875,0.9321136474609375,0.758087158203125,-0.21282958984375
1718292484175623700,63.23562377929687,0.694976806640625,0.5001068115234375,0.13421630859375
1718292484225393400,63.28539331054687,1.2852020263671875,1.1058349609375,0.2764129638671875
1718292484275163100,63.3351630859375,0.9169769287109375,0.6547698974609375,-0.0117034912109375
1718292484324933400,63.384933349609376,0.6838531494140625,0.5470733642578125,-0.0004730224609375
1718292484374703000,63.434703125,0.43829345703125,0.3556976318359375,-0.145416259765625
1718292484424473300,63.48447338867187,1.1844482421875,-0.341949462890625,0.317840576171875
1718292484474242300,63.5342421875,0.9141693115234375,0.065277099609375,0.1824798583984375
1718292484524012300,63.58401220703125,0.5124664306640625,-0.0379638671875,0.286376953125
1718292484573782300,63.6337822265625,0.085723876953125,-0.2243804931640625,0.033966064453125
1718292484623552300,63.68355224609375,0.69903564453125,0.03179931640625,0.1856536865234375
1718292484673322200,63.733322265625,0.7109527587890625,0.14154052734375,0.1750030517578125
1718292484723092200,63.78309228515625,0.867340087890625,0.5076446533203125,0.1040191650390625
1718292484772861200,63.832861083984376,0.7524566650390625,1.0180816650390625,-0.1986541748046875
1718292484822631200,63.88263110351563,0.9038543701171875,0.7823944091796875,0.0002899169921875
1718292484872401200,63.93240112304687,0.92919921875,0.9541168212890625,0.0692596435546875
1718292484922171100,63.982171142578125,1.04217529296875,0.9270477294921875,0.1216583251953125
1718292484971941000,64.03194116210938,1.0086669921875,0.9202880859375,0.0140838623046875
1718292485021711000,64.08171118164063,0.6509246826171875,0.7774810791015625,0.0277252197265625
1718292485071480300,64.13148022460938,0.7134552001953125,0.78936767578125,-0.090362548828125
1718292485121250000,64.18125,0.547393798828125,0.3412322998046875,0.02093505859375
1718292485171020300,64.23102026367188,1.3248443603515625,0.984222412109375,0.1050567626953125
1718292485220790500,64.28079052734375,0.855712890625,0.7559356689453125,0.220306396484375
1718292485270560500,64.330560546875,1.1605072021484375,0.796844482421875,0.0401153564453125
1718292485320330500,64.38033056640624,0.2159881591796875,0.2724151611328125,0.0300140380859375
1718292485370099500,64.43009936523437,0.8904266357421875,-0.2445831298828125,0.382568359375
1718292485419869700,64.47986962890624,0.6410980224609375,0.197357177734375,0.1423492431640625
1718292485469639400,64.52963940429687,0.65301513671875,-0.2407073974609375,0.166229248046875
1718292485519409700,64.57940966796875,0.654052734375,-0.1096649169921875,0.328887939453125
1718292485569179600,64.6291796875,0.479034423828125,0.1113128662109375,0.11724853515625
1718292485618948400,64.6789482421875,0.76788330078125,0.109588623046875,0.0706329345703125
