time,seconds_elapsed,z,y,x
1718292420956993800,0.016993896484375,0.020966533571481705,-0.10000782459974289,0.07704977691173553
1718292421006764800,0.066764892578125,0.03834658861160278,-0.04771905392408371,0.13929450511932373
1718292421056536800,0.116536865234375,-0.013007677160203457,0.0013046825770288706,0.013488378375768661
1718292421106307800,0.166307861328125,-0.017135044559836388,0.05854640156030655,-0.07370191812515259
1718292421156079400,0.216079345703125,0.0051625375635921955,0.013039635494351387,0.017123326659202576
1718292421205850000,0.26585009765625,0.019533753395080566,0.00589490681886673,0.018016550689935684
1718292421255622100,0.3156220703125,-0.01780429668724537,-0.0765799954533577,0.2039794921875
1718292421305393200,0.36539306640625,0.01290594507008791,0.020229637622833252,-0.12279009819030762
1718292421355164400,0.415164306640625,0.003967044875025749,0.08187276124954224,-0.048414137214422226
1718292421404935200,0.46493505859375,0.0019214707426726818,-0.03326128423213959,0.08382166177034378
1718292421454706200,0.5147060546875,0.033116407692432404,0.012559467926621437,0.028560537844896317
1718292421504478200,0.564478271484375,0.00013555490295402706,0.02015586756169796,0.013592507690191269
1718292421554249200,0.614249267578125,0.014180533587932587,0.027278225868940353,0.05020005255937576
1718292421604020200,0.664020263671875,0.027830298990011215,0.07106325775384903,-0.055759135633707047
1718292421653791200,0.713791259765625,0.006047239992767572,0.02286909706890583,0.037636060267686844
1718292421703563300,0.763563232421875,0.032519061118364334,0.020614730194211006,0.1798906773328781
1718292421753334300,0.813334228515625,-0.030832480639219284,0.2190692275762558,0.17231078445911407
1718292421803105000,0.86310498046875,-0.05017874762415886,0.4661109745502472,0.30274122953414917
1718292421852876300,0.912876220703125,-0.18466012179851532,0.49877652525901794,0.7071273326873779
1718292421902647300,0.962647216796875,-0.32370856404304504,0.19877274334430695,0.7554548978805542
1718292421952419300,1.01241943359375,-0.46496129035949707,-0.5385838747024536,1.4313156604766846
1718292422007167000,1.0671669921875,-0.6336624026298523,-0.6892905235290527,1.2332805395126343
1718292422056938200,1.116938232421875,-0.07932092249393463,-0.5648916363716125,0.4479985535144806
1718292422106709200,1.166709228515625,-0.20517072081565857,-0.5574571490287781,0.3376619219779968
1718292422156480000,1.21647998046875,-0.2866858243942261,-0.2150433361530304,0.1400039792060852
1718292422206252000,1.266251953125,0.18482710421085358,0.7880759835243225,-0.17194326221942902
1718292422256023300,1.316023193359375,0.33288314938545227,0.5135599970817566,-0.03121943771839142
1718292422305794300,1.365794189453125,0.12488361448049545,0.3511172831058502,-0.05006290227174759
1718292422355565000,1.41556494140625,0.1711840033531189,0.7503368258476257,-0.5422382354736328
1718292422405336000,1.465336181640625,0.10779144614934921,0.5664677023887634,-0.38529708981513977
1718292422455108000,1.515108154296875,-0.05203790217638016,0.3577735722064972,-0.3376004099845886
1718292422504879400,1.56487939453125,0.06533239781856537,0.4676588177680969,-0.6343279480934143
1718292422554650000,1.614650146484375,0.23591744899749756,0.2674162685871124,0.06935164332389832
1718292422604421000,1.664421142578125,0.15404149889945984,-0.08151057362556458,0.3200182318687439
1718292422654192000,1.714192138671875,0.29831719398498535,-0.10863486677408218,0.4020688831806183
1718292422703963400,1.76396337890625,0.012897156178951263,-0.37178632616996765,0.14786721765995026
1718292422753735200,1.813735107421875,0.04596243053674698,-0.017421334981918335,0.014771755784749985
1718292422803506200,1.863506103515625,-0.12436136603355408,-0.4188457131385803,-0.0944087952375412
1718292422853277200,1.913277099609375,0.009579923003911972,-0.09116239845752716,-0.01727352850139141
1718292422903048200,1.963048095703125,-0.1683807522058487,-0.5652697682380676,-0.046481747180223465
1718292422952819200,2.012819091796875,0.010277139022946358,-0.24891501665115356,-0.06123672425746918
1718292423002591200,2.06259130859375,-0.2452012300491333,-0.8083857893943787,-0.3790077567100525
1718292423052362200,2.1123623046875,0.08482620865106583,-0.41406136751174927,-0.3844265043735504
1718292423102133200,2.16213330078125,-0.0487518273293972,-0.11259951442480087,-0.44686031341552734
1718292423151903500,2.211903564453125,0.052140966057777405,-0.1325351446866989,-0.22522859275341034
1718292423201674200,2.26167431640625,-0.07064434140920639,-0.8422515988349915,-0.31169769167900085
1718292423251445200,2.3114453125,-0.07795552164316177,0.7077840566635132,-1.2707695960998535
1718292423301217300,2.36121728515625,-0.36548930406570435,0.7960241436958313,-1.6320639848709106
1718292423350988300,2.41098828125,-0.6475223302841187,0.09427750110626221,-0.8267613053321838
1718292423400759300,2.46075927734375,-0.9621164798736572,0.3815436363220215,-1.1520448923110962
1718292423450530300,2.5105302734375,-0.953090488910675,-0.09700217843055725,-0.4269028604030609
1718292423500301300,2.56030126953125,-0.8275339007377625,-0.2048221230506897,-0.5037747621536255
1718292423550072300,2.610072265625,-0.40136048197746277,-0.4933287501335144,-0.22536493837833405
1718292423599844000,2.659843994140625,0.07561805844306946,-0.44546109437942505,-0.026796460151672363
1718292423649615400,2.709615478515625,0.28345727920532227,-0.2183310091495514,-0.5727381110191345
1718292423699386400,2.759386474609375,0.16922657191753387,-0.0025949841365218163,-0.2623959481716156
1718292423749157000,2.8091572265625,1.0025714635849,0.0801057517528534,-0.6835026741027832
1718292423798928400,2.858928466796875,0.19973228871822357,-0.2709614634513855,-0.707048773765564
1718292423848699400,2.908699462890625,0.1459484100341797,-0.1402527093887329,-0.6286362409591675
1718292423898471400,2.958471435546875,1.019742727279663,-0.7040753364562988,-0.6452695727348328
1718292423948242200,3.0082421875,1.9973329305648804,-2.5209410190582275,0.5524876713752747
1718292423998013200,3.05801318359375,3.629727363586426,-5.094847679138184,0.8225228786468506
1718292424047784400,3.107784423828125,3.8472557067871094,-3.711876630783081,-0.5013477802276611
1718292424097555500,3.157555419921875,4.2207231521606445,-3.353315591812134,-2.9664700031280518
1718292424147328000,3.207327880859375,4.003982067108154,-1.9395471811294556,-2.421360969543457
1718292424197099000,3.25709912109375,3.603933095932007,0.005046956706792116,-1.8435354232788086
1718292424246870000,3.3068701171875,3.0193278789520264,-1.8974268436431885,0.46688783168792725
1718292424296640800,3.356640869140625,2.599546194076538,-3.12198543548584,1.2560453414916992
1718292424346412000,3.406412109375,-1.0033901929855347,-5.093490123748779,0.8335667252540588
1718292424396184000,3.45618408203125,-1.937355399131775,-2.199303388595581,-0.9047056436538696
1718292424445955000,3.505955078125,-5.793573379516602,-1.6838648319244385,-1.8373621702194214
1718292424495725800,3.555725830078125,-2.230818748474121,-2.1771209239959717,0.7612323760986328
1718292424545496800,3.605496826171875,0.010640127584338188,-0.4469015896320343,1.2424613237380981
1718292424595268000,3.65526806640625,-0.30411168932914734,0.4160832166671753,-0.18504202365875244
1718292424645040000,3.7050400390625,1.2690074443817139,0.854769229888916,-0.7512668371200562
1718292424694811000,3.754810791015625,0.23077036440372467,0.9715219736099243,-0.29205024242401123
1718292424744582000,3.804581787109375,0.5562395453453064,0.6569064855575562,0.8279866576194763
1718292424794353000,3.854352783203125,-0.1599276214838028,0.5374679565429688,0.23002786934375763
1718292424844124200,3.904124267578125,-0.8191590309143066,-1.2115875482559204,-0.28781527280807495
1718292424893896000,3.95389599609375,2.260697603225708,-4.8146467208862305,0.2515438199043274
1718292424943667000,4.0036669921875,1.2196723222732544,0.24323396384716034,0.10362173616886139
1718292424993438000,4.05343798828125,0.10706014186143875,-0.19326426088809967,-0.019234947860240936
1718292425043209000,4.103208984375,-0.5745311975479126,-0.4608190059661865,0.10105471312999725
1718292425092980700,4.152980712890625,2.9262287616729736,-0.7452733516693115,2.2066471576690674
1718292425142751500,4.20275146484375,1.2575491666793823,0.617383599281311,0.5143250823020935
1718292425192522500,4.2525224609375,0.5103695392608643,0.21249735355377197,0.2834532856941223
1718292425242293200,4.302293212890625,-0.5097383260726929,0.18441778421401978,0.30950164794921875
1718292425292064500,4.352064453125,-0.19104638695716858,0.21366700530052185,-0.890034019947052
1718292425341836500,4.40183642578125,1.8341118097305298,-0.721319317817688,-0.43853020668029785
1718292425391607600,4.451607666015625,0.9210206866264343,-0.03116457723081112,0.21090318262577057
1718292425441378300,4.50137841796875,1.6369327306747437,-0.9737808704376221,0.6330112814903259
1718292425491149300,4.5511494140625,-0.13380253314971924,-0.07980188727378845,0.14486797153949738
1718292425540921300,4.60092138671875,2.5095393657684326,-1.185472846031189,0.3383474349975586
1718292425590692600,4.650692626953125,1.23358952999115,-0.6004453301429749,0.9386689066886902
1718292425640463600,4.700463623046875,0.9786080718040466,-0.9737603664398193,0.1487463414669037
1718292425690234400,4.750234375,0.41085225343704224,-0.22450581192970276,0.034090325236320496
1718292425740005400,4.80000537109375,-0.24654319882392883,-0.25967150926589966,-0.5194165706634521
1718292425789777400,4.84977734375,-0.6958538889884949,-0.5426534414291382,0.05897676572203636
1718292425839548700,4.899548583984375,-0.5724999904632568,-0.04682556167244911,0.1581622064113617
1718292425889319400,4.9493193359375,-0.20774014294147491,0.38763347268104553,-0.20809993147850037
1718292425939090400,4.99909033203125,-0.4325096011161804,0.11491061002016068,0.023298930376768112
1718292425988862500,5.048862548828125,2.272282361984253,-0.6936154961585999,0.1079871878027916
1718292426038633500,5.098633544921875,1.890718698501587,-1.840865135192871,0.2215518355369568
1718292426088404500,5.148404541015625,0.12223030626773834,0.40440207719802856,0.009550361894071102
1718292426138176000,5.198176025390625,-0.5449631810188293,0.581901490688324,-0.22144636511802673
1718292426187948000,5.247947998046875,-0.8610314130783081,-0.5590451955795288,0.7275292873382568
1718292426237719000,5.297718994140625,0.10970572382211685,1.3314579725265503,-0.5900297164916992
1718292426287490000,5.347489990234375,-0.4509120583534241,-0.5271162986755371,0.05555567145347595
1718292426337261000,5.397260986328125,0.7616345286369324,-0.6746910810470581,0.3363596498966217
1718292426387033000,5.447033203125,1.8942688703536987,-1.3396128416061401,0.2947181761264801
1718292426436804000,5.49680419921875,0.3454897403717041,-1.4978102445602417,-0.22476600110530853
1718292426486575000,5.5465751953125,-0.7752482891082764,1.2883118391036987,0.026317358016967773
1718292426536345900,5.596345947265625,-0.73058021068573,1.0784236192703247,-0.22492578625679016
1718292426586118000,5.646117919921875,-0.6568279266357422,-0.3218502104282379,0.018265023827552795
1718292426635889200,5.69588916015625,-0.21843193471431732,-0.24464942514896393,-0.22113052010536194
1718292426685660200,5.74566015625,-0.18650169670581818,0.1285041868686676,-0.11894635856151581
1718292426735431000,5.795430908203125,-0.04892919212579727,-0.06196616590023041,0.08064770698547363
1718292426785203000,5.845202880859375,-0.19286586344242096,-0.021088240668177605,0.2045890986919403
1718292426834974000,5.894973876953125,-0.2961901128292084,0.12327452749013901,0.42577099800109863
1718292426884745200,5.9447451171875,-0.12074799090623856,-0.20425726473331451,0.06668981164693832
1718292426934517200,5.994517333984375,0.10989800840616226,-0.13439854979515076,-0.2689259946346283
1718292426984288000,6.0442880859375,-0.0009914948605000973,0.28492867946624756,-0.030765902251005173
1718292427034059000,6.09405908203125,-0.005558017175644636,-0.2699348032474518,-0.023664848878979683
1718292427083831000,6.1438310546875,-0.03407701104879379,-0.22508184611797333,-0.008583101443946362
1718292427133602300,6.193602294921875,0.02846093662083149,-0.1775292456150055,-0.04754861071705818
1718292427183373300,6.243373291015625,0.15480689704418182,-0.16088075935840607,-0.12157995998859406
1718292427233144300,6.293144287109375,0.20026011765003204,-0.2773762047290802,-0.23372460901737213
1718292427282916400,6.342916259765625,0.09716170281171799,-0.25112465023994446,-0.23774944245815277
1718292427332687400,6.392687255859375,0.16621586680412292,-0.4470813572406769,-0.07175807654857635
1718292427382458000,6.4424580078125,0.24132926762104034,-0.286388099193573,-0.03157497197389603
1718292427432230100,6.492230224609375,0.23750708997249603,-0.19128447771072388,0.0003818972909357399
1718292427482001400,6.54200146484375,0.2278006672859192,-0.4346742331981659,0.1700659990310669
1718292427531772400,6.5917724609375,0.39935991168022156,-0.5336894989013672,0.04410780593752861
1718292427581544400,6.64154443359375,0.5206671357154846,-0.47623178362846375,-0.08157715201377869
1718292427631315200,6.691315185546875,0.5131503939628601,-0.434032142162323,-0.04679520055651665
1718292427681086200,6.741086181640625,0.43089839816093445,0.022893065586686134,0.005015531089156866
1718292427730858200,6.790858154296875,0.3285895884037018,0.08992882072925568,0.26218128204345703
1718292427780629500,6.84062939453125,0.28825417160987854,0.5751855373382568,0.39821767807006836
1718292427830401500,6.890401611328125,0.564630389213562,0.13778848946094513,0.3777795135974884
1718292427880172300,6.94017236328125,0.791180431842804,1.2328358888626099,0.3339284360408783
1718292427929943300,6.989943359375,1.0664575099945068,0.6294407844543457,0.4392721652984619
1718292427979715300,7.03971533203125,1.2319493293762207,0.0852818712592125,0.2737942636013031
1718292428029486300,7.089486328125,1.8953543901443481,0.06482800096273422,-0.013698501512408257
1718292428079257300,7.13925732421875,2.451934337615967,-0.022784141823649406,-0.5293416380882263
1718292428129028900,7.18902880859375,2.772967576980591,-0.15703116357326508,-0.5682858228683472
1718292428178799600,7.238799560546875,2.4536545276641846,-0.35064297914505005,-1.3686435222625732
1718292428228570600,7.288570556640625,2.0789244174957275,-1.0768201351165771,-1.4057918787002563
1718292428278342700,7.3383427734375,1.8904839754104614,-0.9376170039176941,-1.8709896802902222
1718292428328114000,7.388114013671875,1.4367319345474243,-1.0884895324707031,-2.0224945545196533
1718292428377885700,7.4378857421875,1.0011250972747803,-1.583716869354248,-2.4056217670440674
1718292428427656700,7.48765673828125,0.9003202319145203,-1.5486204624176025,-2.6364476680755615
1718292428477427700,7.537427734375,0.3641689121723175,-1.516464352607727,-2.7806007862091064
1718292428527199700,7.58719970703125,-0.08059577643871307,-1.4658488035202026,-3.1054394245147705
1718292428576970500,7.636970458984375,-0.6057003140449524,-1.380612850189209,-3.3306310176849365
1718292428626742500,7.686742431640625,-1.048444390296936,-1.1092276573181152,-3.3493340015411377
1718292428676513800,7.736513671875,-1.462291955947876,-0.7655512094497681,-2.8519701957702637
1718292428726285800,7.786285888671875,-1.309429407119751,-0.5301027297973633,-2.3253254890441895
1718292428776056800,7.836056884765625,-1.510550856590271,-0.31254032254219055,-1.8338305950164795
1718292428825827600,7.88582763671875,-1.6172192096710205,-0.3827974498271942,-1.3681262731552124
1718292428875599600,7.935599609375,-1.4275003671646118,0.01625167392194271,-1.1567128896713257
1718292428925370600,7.98537060546875,-1.1059218645095825,0.10947030037641525,-0.5584701895713806
1718292428975142700,8.035142578125,-0.8898811340332031,0.7629679441452026,-0.3734974265098572
1718292429024913700,8.08491357421875,-0.8485131859779358,0.8955773711204529,-0.07372375577688217
1718292429074684700,8.1346845703125,-0.8522821068763733,1.4898064136505127,0.004832838196307421
1718292429124456700,8.184456787109376,-0.661996603012085,1.7758722305297852,-0.0506804883480072
1718292429174227200,8.234227294921874,-0.27918902039527893,1.600588083267212,0.18453575670719147
1718292429223999200,8.283999267578125,-0.1713123619556427,1.6684770584106445,0.36995115876197815
1718292429273770000,8.33377001953125,-0.37283989787101746,1.3780313730239868,0.47055312991142273
1718292429323542000,8.3835419921875,-0.708248496055603,1.0377097129821777,0.630462646484375
1718292429373313300,8.433313232421876,-0.9825522303581238,0.6296833753585815,0.3915456533432007
1718292429423084300,8.483084228515626,-1.0601706504821777,0.7169229388237,0.6033271551132202
1718292429472856300,8.532856201171874,-0.7815413475036621,0.062246862798929214,0.7226002812385559
1718292429522627000,8.582626953125,-0.6532723307609558,0.3649390935897827,0.7387816309928894
1718292429572399000,8.632399169921875,-0.5228413939476013,0.2410927712917328,0.7219861745834351
1718292429622170000,8.682170166015625,-0.4463418126106262,0.005973470397293568,0.5658008456230164
1718292429671942100,8.731942138671876,-0.3770860433578491,0.4280405640602112,0.5301591753959656
1718292429721713200,8.781713134765624,-0.2419641613960266,-0.13483957946300507,0.29951560497283936
1718292429771485200,8.831485107421875,-0.018265556544065475,-0.48643383383750916,0.29542258381843567
1718292429821256200,8.881256103515625,-0.1113227978348732,-0.29818108677864075,0.3869469165802002
1718292429871027200,8.931027099609375,-0.12009285390377045,-0.030292924493551254,0.3747781217098236
1718292429920799200,8.98079931640625,-0.22989951074123383,-0.014466824010014534,0.326850563287735
1718292429970570000,9.030570068359374,-0.21488673985004425,0.007680024020373821,0.5276358723640442
1718292430020342000,9.080342041015625,-0.19438785314559937,-0.08445602655410767,0.39616093039512634
1718292430070113300,9.13011328125,-0.1557677537202835,-0.0892113670706749,0.27306002378463745
1718292430119885300,9.17988525390625,-0.05513782054185867,-0.11569464206695557,0.13066959381103516
1718292430169657000,9.229656982421876,0.04524710774421692,-0.0289970301091671,0.01611931435763836
1718292430219429000,9.27942919921875,0.034260500222444534,-0.018069548532366753,0.007256581448018551
1718292430269200100,9.3292001953125,-0.017768343910574913,-0.15663674473762512,0.12186252325773239
1718292430318972200,9.37897216796875,0.011021758429706097,-0.003296460723504424,0.14419712126255035
1718292430368743200,9.4287431640625,-0.029172532260417938,-0.06869491189718246,0.14425970613956451
1718292430418514000,9.478513916015626,-0.03537316992878914,-0.11788935214281082,0.11130335181951523
1718292430468286000,9.528285888671874,-0.04826526716351509,-0.17977695167064667,0.03513375297188759
1718292430518057200,9.57805712890625,0.019084211438894272,-0.1798587143421173,0.0009773800848051906
1718292430567829200,9.627829345703125,0.01570013351738453,-0.0713367611169815,0.0031736891251057386
1718292430617600300,9.677600341796875,0.005784119479358196,0.0507260262966156,0.057410828769207
1718292430667372000,9.7273720703125,0.01762772910296917,0.024396685883402824,0.0700874775648117
1718292430717143000,9.77714306640625,-0.01756354793906212,-0.044624991714954376,0.13525396585464478
1718292430766915000,9.8269150390625,-0.011392204090952873,-0.06143806129693985,0.1476546972990036
1718292430816686000,9.87668603515625,-0.00013795174891129136,-0.05445205792784691,0.22160083055496216
1718292430866458000,9.9264580078125,0.035230692476034164,-0.028439896181225777,0.14736121892929077
1718292430916229000,9.97622900390625,0.04885568842291832,0.006423011887818575,0.1581699252128601
1718292430966001200,10.026001220703124,0.11775273084640503,0.10717198997735977,0.17422106862068176
1718292431015772200,10.075772216796874,0.14761555194854736,0.08130896836519241,0.1570436805486679
1718292431065543200,10.125543212890625,0.11487199366092682,0.01441196259111166,0.039387885481119156
1718292431115315200,10.175315185546875,0.08153720200061798,-0.16723932325839996,0.2075883448123932
1718292431165086000,10.2250859375,0.12575925886631012,-0.304395854473114,0.19830270111560822
1718292431214858000,10.27485791015625,0.17437952756881714,-0.2858855426311493,0.22620517015457153
1718292431264629000,10.32462890625,0.1697818487882614,-0.4262724816799164,0.18723273277282715
1718292431314401000,10.374401123046875,0.15258261561393738,-0.4189927279949188,0.2267141044139862
1718292431364172000,10.424172119140625,0.08373777568340302,-0.33640676736831665,0.07307767122983932
1718292431413944000,10.473944091796875,0.26211950182914734,-0.38661321997642517,-0.12163721770048141
1718292431463715000,10.523715087890626,0.3709903359413147,-0.3567168414592743,-0.38492345809936523
1718292431513486800,10.57348681640625,0.2806535065174103,-0.9865486025810242,-0.6328592300415039
1718292431563257900,10.6232578125,-0.001204547705128789,-0.6208680868148804,-0.4438458979129791
1718292431613030000,10.67302978515625,0.07592272758483887,-0.4918690621852875,-0.11272414773702621
1718292431662801200,10.72280126953125,-0.001118527608923614,-0.5605882406234741,-0.3117557466030121
1718292431712572000,10.772572021484375,0.15723276138305664,-0.5334628820419312,-0.22394707798957825
1718292431762344000,10.822343994140626,0.1310618817806244,-0.5678437352180481,-0.3644472062587738
1718292431812115000,10.872114990234374,0.12438959628343582,-0.427572637796402,-0.3919709622859955
1718292431861887000,10.921886962890625,0.10845404118299484,-0.3227919042110443,-0.38599830865859985
1718292431911658000,10.971657958984375,-0.0029696908313781023,-0.3461534082889557,-0.2993425130844116
1718292431961430000,11.021429931640625,-0.04469210281968117,-0.2978686988353729,-0.2865971326828003
1718292432011201000,11.071200927734376,-0.07641088217496872,-0.09154056757688522,-0.2604489028453827
1718292432060973000,11.12097314453125,-0.08868405967950821,0.047755803912878036,-0.266403466463089
1718292432110744000,11.170744140625,-0.07506385445594788,0.07800132781267166,-0.3028980791568756
1718292432160516000,11.22051611328125,-0.09766211360692978,-0.031866054981946945,-0.30175718665122986
1718292432210286800,11.270286865234375,-0.09783255308866501,-0.26744768023490906,-0.36367860436439514
1718292432260057900,11.320057861328126,-0.08021494746208191,-0.3672485947608948,-0.2298228144645691
1718292432309830000,11.369829833984374,-0.13748835027217865,-0.3203761577606201,-0.2157602608203888
1718292432359601000,11.419600830078124,-0.15557360649108887,-0.38641029596328735,-0.07766629755496979
1718292432409373000,11.469373046875,-0.12431396543979645,-0.2641725242137909,-0.017018398270010948
1718292432459144000,11.51914404296875,-0.13073883950710297,-0.19656498730182648,-0.006396113894879818
1718292432508916000,11.568916015625,-0.09679152071475983,-0.119406558573246,-0.019814983010292053
1718292432558687000,11.61868701171875,-0.26758164167404175,-0.18361510336399078,0.06487859785556793
1718292432608459000,11.668458984375,-0.27158915996551514,-0.25272253155708313,0.00566933723166585
1718292432658229800,11.718229736328125,-0.33558839559555054,-0.22011318802833557,0.172502800822258
1718292432708001000,11.7680009765625,-0.26128965616226196,-0.06367644667625427,0.16356974840164185
1718292432757772800,11.817772705078125,-0.16901804506778717,0.07989776134490967,0.32328060269355774
1718292432807544000,11.8675439453125,0.1991083025932312,0.43701326847076416,0.44547200202941895
1718292432857316000,11.917316162109374,0.12092216312885284,-0.09640909731388092,0.8521449565887451
1718292432907086800,11.9670869140625,0.04519783705472946,0.20885680615901947,0.5880171656608582
1718292432956859000,12.01685888671875,-0.26834091544151306,-0.19447706639766693,0.6426881551742554
1718292433006630000,12.0666298828125,-0.18126672506332397,-0.13962393999099731,0.6662731170654297
1718292433056402000,12.11640185546875,-0.12660402059555054,-0.1187673956155777,0.599088191986084
1718292433106173000,12.1661728515625,-0.017541974782943726,0.22444215416908264,0.4770834743976593
1718292433155943200,12.215943115234374,0.0637560784816742,0.19854611158370972,0.3856789767742157
1718292433205715000,12.26571484375,0.10211225599050522,0.06895855814218521,0.2188226282596588
1718292433255486000,12.31548583984375,0.005089034326374531,-0.14978337287902832,0.22257235646247864
1718292433305258000,12.365258056640625,0.07991773635149002,0.06083991378545761,0.3388632833957672
1718292433355029000,12.415029052734376,0.09075227379798889,0.011335745453834534,0.23727966845035553
1718292433404801000,12.464801025390624,0.14587384462356567,0.097262904047966,0.13065122067928314
1718292433454572000,12.514572021484375,0.13464783132076263,0.04586362838745117,0.041073933243751526
1718292433504343000,12.564343017578125,0.16518177092075348,0.013420999981462955,-0.009283512830734253
1718292433554115000,12.614114990234375,0.2067933976650238,0.0001978728687390685,-0.34308305382728577
1718292433603886000,12.663885986328125,0.3698883056640625,-0.36231160163879395,-0.677758514881134
1718292433653658000,12.713658203125,0.48693689703941345,-0.5991952419281006,-0.9984270930290222
1718292433703428900,12.763428955078124,0.08912508189678192,-1.0191384553909302,-1.3770382404327393
1718292433753200000,12.8132001953125,-0.19948089122772217,-0.7369725704193115,-0.6902205348014832
1718292433802972200,12.86297216796875,-0.12121377885341644,-0.3829183578491211,-0.6248186230659485
1718292433852743200,12.9127431640625,0.1226460263133049,-0.06942062079906464,-0.3019161820411682
1718292433902515200,12.96251513671875,-0.05488668382167816,-0.13829421997070312,-0.16599509119987488
1718292433952286000,13.012285888671874,-0.2633354961872101,-0.14025670289993286,-0.14209163188934326
1718292434002058000,13.06205810546875,-0.2667912244796753,-0.2866743803024292,-0.004441886208951473
1718292434051829000,13.1118291015625,-0.15748123824596405,-0.46414050459861755,0.04693262279033661
1718292434101600300,13.161600341796875,-0.17253687977790833,-0.46604228019714355,-0.0626697689294815
1718292434151372500,13.21137255859375,-0.12936651706695557,-0.34423592686653137,-0.24884763360023499
1718292434201143300,13.261143310546874,-0.1351221352815628,-0.5093074440956116,-0.35699141025543213
1718292434250915300,13.310915283203125,-0.12664635479450226,-0.5654266476631165,-0.2250371128320694
1718292434300686300,13.360686279296875,-0.14344264566898346,-0.556641161441803,-0.2197110503911972
1718292434350457300,13.410457275390625,-0.19892215728759766,-0.23105399310588837,-0.018081266433000565
1718292434400229400,13.4602294921875,-0.17093606293201447,-0.17767252027988434,0.029704099521040916
1718292434450000400,13.51000048828125,-0.16540467739105225,-0.05107862874865532,0.13573679327964783
1718292434499771400,13.559771484375,-0.3121624290943146,0.043235886842012405,0.16464966535568237
1718292434549543400,13.60954345703125,-0.26949620246887207,0.17821288108825684,0.31255418062210083
1718292434599314400,13.659314453125,-0.2511659264564514,0.5364208221435547,0.47127193212509155
1718292434649086200,13.709086181640625,-0.2562144696712494,0.3512762784957886,0.3341902196407318
1718292434698857200,13.758857177734376,0.06419043987989426,0.8739416003227234,0.3992014527320862
1718292434748628500,13.80862841796875,-0.12346255034208298,0.16348746418952942,0.3022615909576416
1718292434798400500,13.858400390625,-0.18840719759464264,0.34627458453178406,0.20768316090106964
1718292434848171300,13.908171142578125,0.04320046678185463,0.05691840872168541,0.15977102518081665
1718292434897942300,13.9579423828125,0.06770767271518707,-0.09069075435400009,0.02786571905016899
1718292434947714300,14.00771435546875,0.101671501994133,0.1557280719280243,-0.0353313572704792
1718292434997485300,14.0574853515625,0.16886384785175323,0.5515307784080505,-0.22130842506885529
1718292435047257300,14.10725732421875,0.07460366189479828,0.4318059980869293,-0.23421169817447662
1718292435097028400,14.1570283203125,-0.0420590378344059,0.2595745921134949,-0.2474348247051239
1718292435146799400,14.20679931640625,-0.16129808127880096,-0.029199430719017982,-0.06668422371149063
1718292435196571400,14.2565712890625,-0.04180843383073807,-0.0724979043006897,0.02226029895246029
1718292435246342400,14.30634228515625,-0.057367417961359024,-0.11200562864542007,0.02888144925236702
1718292435296113200,14.356113037109376,-0.018438128754496574,-0.014622352086007595,0.058695804327726364
1718292435345885200,14.40588525390625,0.06154272332787514,0.010727212764322758,0.022100774571299553
1718292435395656400,14.455656494140625,0.001424791174940765,-0.05006369948387146,0.22181734442710876
1718292435445427500,14.505427490234375,0.0341971181333065,0.06315366923809052,0.004971588961780071
1718292435495199200,14.55519921875,0.04446253925561905,0.3045601546764374,-0.157075896859169
1718292435544970200,14.60497021484375,0.07355491071939468,0.07192105799913406,0.11381977796554565
1718292435594741200,14.6547412109375,0.004003796260803938,0.12889033555984497,0.12842614948749542
1718292435644513300,14.70451318359375,0.009459281340241432,-0.005002748221158981,0.052255481481552124
1718292435694284300,14.7542841796875,-0.027718979865312576,-0.011888084933161736,0.0416845977306366
1718292435744055300,14.80405517578125,-0.011239605024456978,-0.0705370157957077,0.16969555616378784
1718292435793827300,14.853827392578125,-0.0821598470211029,-0.21474292874336243,0.19710001349449158
1718292435843598300,14.903598388671876,-0.07440419495105743,-0.24756506085395813,0.3939313292503357
1718292435893369000,14.953369140625,-0.05801696330308914,-0.19020375609397888,0.3358650803565979
1718292435943141000,15.00314111328125,0.02841060236096382,-0.01696247234940529,0.2251015603542328
1718292435992912400,15.052912353515625,0.06691112369298935,0.15202122926712036,0.07420472055673599
1718292436042683400,15.102683349609375,0.07290136814117432,0.018666096031665802,-0.194116473197937
1718292436092455400,15.152455322265626,0.1268804520368576,0.039441682398319244,-0.2992623448371887
1718292436142226400,15.202226318359376,-0.0326162651181221,-0.14099439978599548,-0.2093002200126648
1718292436191997400,15.25199755859375,-0.13179318606853485,-0.0560946948826313,-0.005856025032699108
1718292436241769500,15.30176953125,0.04350326955318451,0.07866844534873962,-0.33734074234962463
1718292436291540700,15.351540771484375,0.15286757051944733,-0.09464315325021744,-0.44496387243270874
1718292436341311500,15.4013115234375,0.0741456001996994,-0.16041311621665955,-0.16379186511039734
1718292436391083500,15.45108349609375,-0.06592974811792374,0.08289967477321625,-0.019162775948643684
1718292436440854500,15.5008544921875,-0.08146822452545166,0.1695014089345932,0.11437530815601349
1718292436490625500,15.55062548828125,-0.05721428617835045,0.14695535600185394,0.14563123881816864
1718292436540397600,15.6003974609375,0.013561614789068699,0.10860078036785126,0.09061299264431
1718292436590168600,15.65016845703125,0.05842922255396843,0.07669930160045624,0.04129364341497421
1718292436639939600,15.699939697265625,0.010492322035133839,0.014222611673176289,0.06051900237798691
1718292436689710600,15.749710693359376,-0.1505841761827469,-0.001213868847116828,0.015928899869322777
1718292436739482600,15.799482666015624,0.07908309996128082,0.22146101295948029,0.012193815782666206
1718292436789253400,15.84925341796875,0.05952724069356918,0.032343823462724686,0.13960902392864227
1718292436839024600,15.899024658203125,-0.09349985420703888,0.26611849665641785,0.11448849737644196
1718292436888796700,15.948796630859375,-0.04266490414738655,-0.14702220261096954,0.12881045043468475
1718292436938567700,15.998567626953125,0.07902504503726959,-0.08341287076473236,0.19962629675865173
1718292436988338400,16.04833837890625,0.03347327187657356,-0.1262040138244629,0.1991003155708313
1718292437038109400,16.098109375,-0.021272266283631325,0.05079420655965805,0.10049624741077423
1718292437087881500,16.147881591796875,-0.017183247953653336,0.09498989582061768,0.13649526238441467
1718292437137653000,16.197653076171875,0.02371651493012905,0.0726688802242279,0.212833434343338
1718292437187424300,16.24742431640625,0.009780991822481155,-0.04182201623916626,0.1453918218612671
1718292437237195300,16.2971953125,0.0338173508644104,-0.02641483023762703,0.05826783552765846
1718292437286967300,16.34696728515625,0.009966880083084106,0.052499428391456604,0.09560561925172806
1718292437336738000,16.396738037109376,-0.0581999234855175,0.07170774042606354,0.0789741799235344
1718292437386509000,16.446509033203125,-0.04560050740838051,0.027766650542616844,0.038300782442092896
1718292437436281000,16.496281005859377,-0.01588522270321846,-0.0035742283798754215,-0.03754764050245285
1718292437486052400,16.54605224609375,0.005645368713885546,0.01714995875954628,-0.0745764970779419
1718292437535823000,16.595822998046874,0.013615410774946213,0.030519826337695122,-0.027049461379647255
1718292437585594000,16.645593994140626,0.00941960047930479,-0.007664843928068876,0.035719115287065506
1718292437635366100,16.6953662109375,-0.05666594207286835,0.053213685750961304,0.05247732251882553
1718292437685137200,16.74513720703125,-0.08725793659687042,0.05986093729734421,0.01788019761443138
1718292437734908200,16.794908203125,0.010775149799883366,0.07503722608089447,-0.02622707560658455
1718292437784679200,16.84467919921875,0.05624249950051308,0.12099113315343857,-0.044369593262672424
1718292437834451200,16.894451171875,-0.01774171181023121,0.09465619921684265,-0.10963408648967743
1718292437884222200,16.94422216796875,0.027483822777867317,0.020235231146216393,-0.07698240131139755
1718292437933993200,16.9939931640625,0.0412084236741066,-0.003299123840406537,-0.029645510017871857
1718292437983764200,17.04376416015625,0.022485867142677307,0.009623066522181034,-0.08595006167888641
1718292438033535200,17.09353515625,-0.006803844124078751,0.006095709279179573,-0.10108081251382828
1718292438083307300,17.143307373046873,-0.0280366949737072,0.05778180807828903,0.0000756337758502923
1718292438133078300,17.193078369140625,0.03497849032282829,0.04944717884063721,-0.10626412183046341
1718292438182848500,17.2428486328125,0.05864866450428963,0.025302959606051445,-0.08854024857282639
1718292438232619500,17.29261962890625,0.03494493290781975,0.08781347423791885,-0.09439228475093842
1718292438282391600,17.3423916015625,0.03849412873387337,0.09780006110668182,-0.06791247427463531
1718292438332162600,17.39216259765625,0.04662103205919266,0.06178000941872597,-0.034091923385858536
1718292438381933600,17.44193359375,0.03051556460559368,0.07511285692453384,-0.10577729344367981
1718292438431704600,17.49170458984375,0.003323891432955861,0.015411979518830776,-0.13029888272285461
1718292438481475600,17.5414755859375,0.030672425404191017,-0.0054570832289755344,-0.01788126304745674
1718292438531247600,17.59124755859375,0.03057282231748104,-0.039020102471113205,-0.03473880514502525
1718292438581018400,17.641018310546876,-0.023036610335111618,-0.11144183576107025,0.0051683965139091015
1718292438630789600,17.69078955078125,0.013168532401323318,-0.10085151344537735,0.0011685950448736548
1718292438680560600,17.740560546875,0.02467365376651287,-0.11026658862829208,0.029826872050762177
1718292438730331600,17.79033154296875,0.009937318973243237,-0.04411100223660469,-0.030250314623117447
1718292438780103400,17.840103515625,-0.014344317838549614,-0.04699547216296196,0.0017052220646291971
1718292438829874400,17.88987451171875,-0.0073655047453939915,-0.005769738461822271,0.027579963207244873
1718292438879645700,17.939645751953126,0.01877901330590248,-0.0006293049664236605,-0.005751362536102533
1718292438929416700,17.989416748046875,0.0014045510906726122,0.00033928672201000154,-0.02672002837061882
1718292438979187500,18.0391875,-0.003698864486068487,0.015902800485491753,0.003906058380380273
1718292439028959500,18.08895947265625,0.006870422977954149,0.0368373766541481,0.03393905982375145
1718292439078730500,18.13873046875,0.01537869032472372,0.014534734189510345,0.021770542487502098
1718292439128501800,18.188501708984376,0.01834678277373314,0.03429059684276581,-0.02593945525586605
1718292439178272500,18.2382724609375,0.007968178018927574,0.031810395419597626,-0.010400176979601383
1718292439228043500,18.28804345703125,0.0028245486319065094,0.02454821951687336,-0.007368966471403837
1718292439277814300,18.337814208984376,-0.0002777676854748279,0.01446762215346098,-0.007957525551319122
1718292439327586300,18.38758642578125,-0.002374474424868822,-0.009465939365327358,-0.010453173890709877
1718292439377357600,18.437357666015625,-0.005654956214129925,-0.0030368026345968246,-0.01227237842977047
1718292439427128600,18.487128662109374,-0.0030365362763404846,-0.01727885566651821,-0.014756308868527412
1718292439476899300,18.5368994140625,0.0035571842454373837,-0.03718145564198494,0.0284084714949131
1718292439526670300,18.58667041015625,0.009802296757698059,-0.010933607816696167,0.006271744146943092
1718292439576441600,18.636441650390626,0.0039017973467707634,-0.0175640806555748,-0.020421918481588364
1718292439626213600,18.686213623046875,0.005675196181982756,0.02761271968483925,-0.035240013152360916
1718292439675984400,18.735984375,-0.01017034612596035,0.028250547125935555,-0.05565287545323372
1718292439725755400,18.78575537109375,-0.012747220695018768,0.006339921150356531,-0.015626629814505577
1718292439775526400,18.8355263671875,0.004117779433727264,-0.026545589789748192,-0.04975184425711632
1718292439825297400,18.88529736328125,-0.009476326406002045,-0.051113784313201904,-0.022421153262257576
1718292439875068400,18.935068359375,-0.008407066576182842,-0.06923073530197144,-0.008069911040365696
1718292439924839400,18.98483935546875,0.014376808889210224,-0.05560760200023651,-0.0037816886324435472
1718292439974611500,19.034611572265625,0.017845576629042625,0.0032061797101050615,-0.00752050057053566
1718292440024382500,19.084382568359374,0.015992814674973488,-0.007605188991874456,-0.031809594482183456
1718292440074153500,19.134153564453126,0.018199244514107704,0.015123559162020683,-0.05583370476961136
1718292440123924500,19.183924560546874,0.01823120191693306,0.014934208244085312,-0.0386536531150341
1718292440173695700,19.23369580078125,0.016148077324032784,0.011751730926334858,-0.039747677743434906
1718292440223466800,19.283466796875,0.004457332659512758,0.010318417102098465,-0.009956227615475655
1718292440273237800,19.33323779296875,0.0020359866321086884,0.004107659682631493,-0.0024658208712935448
1718292440323008800,19.3830087890625,0.012777580879628658,-0.007415572181344032,0.016274044290184975
1718292440372780800,19.43278076171875,0.005020857788622379,-0.022003035992383957,-0.010572749190032482
1718292440422551800,19.4825517578125,0.004637895151972771,-0.011892878450453281,0.014109160751104355
1718292440472322800,19.53232275390625,0.012171978130936623,0.013125388883054256,-0.018990468233823776
1718292440522093800,19.58209375,-0.0019835224375128746,0.0031899344176054,-0.004597947467118502
1718292440571864800,19.63186474609375,-0.004689293913543224,0.010510165244340897,-0.024578314274549484
1718292440621635800,19.6816357421875,-0.008713596500456333,-0.00504056503996253,-0.01725994609296322
1718292440671406800,19.73140673828125,-0.00748960766941309,-0.009468602947890759,0.01139779668301344
1718292440721177900,19.781177734375,0.0007933556917123497,-0.006811034400016069,0.0013203952694311738
1718292440770948900,19.830948974609374,-0.0016431703697890043,-0.012799951247870922,0.008651545271277428
1718292440820719600,19.8807197265625,0.002071140334010124,0.0005030711181461811,-0.009797503240406513
1718292440870491600,19.93049169921875,-0.001463939668610692,-0.00032197617110796273,-0.011951201595366001
1718292440920263000,19.980262939453127,0.001496430253610015,0.011477957479655743,0.009301356039941311
1718292440970034000,20.030033935546875,-0.002389121800661087,-0.0006820355774834752,-0.013741378672420979
1718292441019804700,20.0798046875,-0.006743656471371651,-0.0014620753936469555,0.004868524614721537
1718292441069575700,20.12957568359375,0.004879443906247616,0.0007195860962383449,0.010568222030997276
1718292441119347000,20.179346923828124,-0.0060110208578407764,-0.0009086705395020545,-0.01094772294163704
1718292441169117700,20.22911767578125,-0.011327489279210567,0.00501073757186532,0.004177700728178024
1718292441218888700,20.278888671875,-0.010642257519066334,-0.023365510627627373,-0.009861418977379799
1718292441268659700,20.32865966796875,-0.010727745480835438,-0.014108894392848015,0.020054668188095093
1718292441318430700,20.3784306640625,-0.012025769799947739,0.002686064224690199,-0.000723048229701817
1718292441368201700,20.42820166015625,-0.013719541020691395,-0.010486729443073273,0.00637880340218544
1718292441417972500,20.477972412109374,-0.011136540211737156,0.0010122675448656082,0.018306834623217583
1718292441467743700,20.52774365234375,-0.013969078660011292,-0.0075902752578258514,-0.00018269284919369966
1718292441517514800,20.5775146484375,-0.017067400738596916,-0.002843989757820964,-0.0001853560097515583
1718292441567286800,20.627286865234375,-0.022356703877449036,-0.015025555156171322,0.0033372072502970695
1718292441617057800,20.677057861328127,-0.025828933343291283,0.022191055119037628,0.0025478461757302284
1718292441666828500,20.72682861328125,-0.025529595091938972,-0.013549097813665867,-0.004968126770108938
1718292441716599800,20.776599853515624,-0.01870950497686863,-0.04737577214837074,0.022814234718680382
1718292441766370800,20.826370849609376,-0.02889316715300083,-0.07115859538316727,0.055083759129047394
1718292441816141600,20.8761416015625,-0.01895930990576744,-0.07604842633008957,0.06847679615020752
1718292441865912600,20.92591259765625,0.01076769270002842,-0.12559014558792114,0.05054759606719017
1718292441915683800,20.975683837890625,-0.019725767895579338,-0.26323989033699036,0.14309483766555786
1718292441965454600,21.02545458984375,-0.08138193935155869,-0.44368210434913635,0.3170466721057892
1718292442015225600,21.0752255859375,-0.0560893677175045,-0.4039402902126312,0.22035446763038635
1718292442064996600,21.12499658203125,-0.0031886028591543436,-0.17429830133914948,0.10150159150362015
1718292442114768000,21.174767822265625,0.0005736448802053928,-0.05177078768610954,0.10084298998117447
1718292442164538600,21.22453857421875,-0.015065768733620644,-0.045220475643873215,0.13559378683567047
1718292442214309400,21.274309326171874,-0.000284159294096753,-0.10101982206106186,0.14120452105998993
1718292442264080600,21.32408056640625,0.006690393202006817,-0.12316400557756424,0.11179923266172409
1718292442313851600,21.3738515625,0.0016437029698863626,-0.08466961234807968,0.08533753454685211
1718292442363622700,21.42362255859375,-0.029863622039556503,-0.06607702374458313,0.15944664180278778
1718292442413393400,21.473393310546875,0.020603545010089874,-0.09744266420602798,0.1689051389694214
1718292442463164700,21.52316455078125,0.08111242949962616,-0.01673929952085018,0.16055159270763397
1718292442512935700,21.572935791015624,0.09198877960443497,-0.01017007976770401,0.11626189202070236
1718292442562706400,21.62270654296875,0.05307120829820633,-0.11616548895835876,0.1352078914642334
1718292442612477400,21.6724775390625,0.044912613928318024,-0.1130615770816803,0.10159719735383987
1718292442662248700,21.722248779296876,0.043226566165685654,-0.026920564472675323,0.15213121473789215
1718292442712019500,21.77201953125,0.026679547503590584,0.07025845348834991,0.054542604833841324
1718292442761790500,21.82179052734375,0.07481591403484344,0.08466827869415283,0.13848944008350372
1718292442811561500,21.8715615234375,0.05510666221380234,0.0720563530921936,0.10498607158660889
1718292442861332700,21.921332763671874,0.0543346107006073,0.03309110924601555,0.03568795695900917
1718292442911103500,21.971103515625,0.10605106502771378,0.013644439168274403,0.09626501798629761
1718292442960874500,22.02087451171875,0.09230835735797882,-0.1569209098815918,0.20395100116729736
1718292443010645500,22.0706455078125,0.07957445085048676,-0.08386880159378052,0.18434028327465057
1718292443060416500,22.12041650390625,0.13584065437316895,-0.12485618144273758,0.15794461965560913
1718292443110187500,22.1701875,0.15415601432323456,-0.21541084349155426,0.1577259749174118
1718292443159959300,22.219959228515624,0.1466677337884903,-0.17271558940410614,0.16365471482276917
1718292443209730000,22.26972998046875,0.12161804735660553,-0.09005185961723328,-0.02893790788948536
1718292443259501300,22.319501220703124,0.17786987125873566,-0.16954030096530914,-0.4063243567943573
1718292443309272300,22.369272216796876,0.18533310294151306,-0.30466243624687195,-0.7426970601081848
1718292443359043000,22.41904296875,0.08332870900630951,-0.5085079669952393,-0.9708588123321533
1718292443408814000,22.46881396484375,0.00024341292737517506,-0.9387762546539307,-0.8937869668006897
1718292443458585300,22.51858544921875,-0.12568575143814087,-0.7944928407669067,-0.5894702076911926
1718292443508356400,22.5683564453125,-0.1402985155582428,-0.8597421646118164,-0.46196284890174866
1718292443558127000,22.618127197265625,0.07297567278146744,-0.7851651310920715,-0.6112015843391418
1718292443607898000,22.667898193359374,0.20285111665725708,-0.9407320618629456,-1.1110141277313232
1718292443657669400,22.71766943359375,0.09139702469110489,-1.058672308921814,-1.1105437278747559
1718292443707440000,22.767440185546874,0.04127420112490654,-1.3173505067825317,-1.336921215057373
1718292443757211100,22.817211181640626,0.09482238441705704,-1.9473052024841309,-1.3343992233276367
1718292443806982400,22.866982421875,0.26834943890571594,-1.430695652961731,-1.5180518627166748
1718292443856753200,22.916753173828123,0.6637516021728516,-1.4604597091674805,-1.6308578252792358
1718292443906523100,22.966523193359375,0.7702431678771973,-0.9150264859199524,-1.6639270782470703
1718292443956294400,23.01629443359375,1.132482647895813,-0.37258103489875793,-1.7177215814590454
1718292444006065200,23.066065185546876,1.2352931499481201,-0.3944210708141327,-1.507784366607666
1718292444055836200,23.115836181640624,1.1784391403198242,-0.5311222076416016,-1.3545489311218262
1718292444105607200,23.165607177734376,1.1408590078353882,-0.4883723556995392,-1.3950707912445068
1718292444155377700,23.215377685546876,1.0495773553848267,-0.4007338285446167,-1.5073342323303223
1718292444205148700,23.265148681640625,0.8490296006202698,-0.60640549659729,-1.6088166236877441
1718292444254919700,23.314919677734373,0.24661749601364136,-0.6221557259559631,-1.826913833618164
1718292444304690700,23.364690673828125,-0.14638517796993256,-0.42837053537368774,-1.8436025381088257
1718292444354461700,23.414461669921874,-0.5593644976615906,-0.15590304136276245,-1.5853878259658813
1718292444404232700,23.464232666015626,-0.7804108262062073,0.05579402297735214,-1.0748480558395386
1718292444454003500,23.51400341796875,-0.9320701360702515,0.25301629304885864,-0.5158044695854187
1718292444503774700,23.563774658203126,-1.074113368988037,0.36301389336586,-0.27252551913261414
1718292444553544700,23.613544677734374,-1.0642598867416382,0.35984766483306885,-0.2147732824087143
1718292444603315700,23.663315673828127,-0.7045208811759949,0.45182791352272034,-0.7290733456611633
1718292444653086700,23.713086669921875,-0.6580545902252197,-0.11356517672538757,-1.2367312908172607
1718292444702857700,23.762857666015623,-0.5101245045661926,-0.1573515385389328,-0.8985545635223389
1718292444752628500,23.81262841796875,-0.4006139934062958,-0.0686352550983429,-0.7348537445068359
1718292444802399700,23.862399658203124,-0.23387135565280914,0.17399495840072632,-0.6244478821754456
1718292444852170800,23.912170654296876,-0.22903211414813995,0.087269127368927,-0.25270628929138184
1718292444901941800,23.961941650390624,-0.17815561592578888,0.3683772385120392,-0.05828780680894852
1718292444951712500,24.01171240234375,-0.4650598168373108,0.2557191252708435,0.17374064028263092
1718292445001483800,24.06148388671875,-0.5851010084152222,0.423498272895813,0.3735152781009674
1718292445051253800,24.111253662109377,-0.5459282994270325,0.5226126313209534,0.7281582951545715
1718292445101024500,24.1610244140625,-0.49694958329200745,0.6098124980926514,0.9596168398857117
1718292445150795800,24.210795654296874,-0.19124212861061096,0.7727761268615723,1.0621658563613892
1718292445200566800,24.26056689453125,-0.08594740182161331,0.8091530203819275,1.3627417087554932
1718292445250337800,24.310337890625,-0.08886755257844925,0.9188792705535889,1.5360658168792725
1718292445300108500,24.360108642578126,-0.14953330159187317,0.9237054586410522,1.650429606437683
1718292445349879800,24.4098798828125,0.21156710386276245,1.2021242380142212,2.0004427433013916
1718292445399650800,24.45965087890625,0.6537080407142639,1.2616208791732788,1.6972732543945312
1718292445449420800,24.5094208984375,0.7580413818359375,1.3950934410095215,1.5134491920471191
1718292445499191800,24.55919189453125,0.657584011554718,1.7750195264816284,1.4183156490325928
1718292445548962800,24.608962890625,0.6547471880912781,1.2906155586242676,0.9556953310966492
1718292445598733600,24.658733642578124,0.4086625874042511,1.1930674314498901,0.5689361691474915
1718292445648504800,24.7085048828125,0.3385317027568817,0.861491322517395,0.6074175238609314
1718292445698275800,24.75827587890625,0.31409481167793274,0.17998787760734558,0.4609692096710205
1718292445748046600,24.808046630859376,0.20681336522102356,-0.058158643543720245,0.25820064544677734
1718292445797817600,24.857817626953125,0.19926676154136658,-0.0557335689663887,-0.0016682040877640247
1718292445847587800,24.907587890625,-0.04647349193692207,0.0480162613093853,-0.11391378194093704
1718292445897358600,24.957358642578125,-0.10054178535938263,0.10749103873968124,-0.22567467391490936
1718292445947129600,25.007129638671874,0.056478988379240036,-0.13065281510353088,-0.23729297518730164
1718292445996900900,25.05690087890625,0.09640536457300186,-0.23407135903835297,-0.35462653636932373
1718292446046671600,25.106671630859374,-0.0025654230266809464,-0.2672466039657593,-0.5843236446380615
1718292446096442600,25.156442626953126,-0.08800415694713593,-0.7624430656433105,-0.5730768442153931
1718292446146212600,25.206212646484374,0.05693145841360092,-0.7552647590637207,-0.44357556104660034
1718292446195983600,25.255983642578126,0.1544492244720459,-0.6885549426078796,-0.5416011810302734
1718292446245754600,25.305754638671875,0.31462132930755615,-0.8165390491485596,-0.7512385845184326
1718292446295526000,25.35552587890625,0.38810884952545166,-0.8423554301261902,-0.8807233572006226
1718292446345296600,25.405296630859375,0.5072879791259766,-0.44198885560035706,-1.0456140041351318
1718292446395067600,25.455067626953124,0.6336637735366821,-0.1499261111021042,-1.012559413909912
1718292446444837600,25.504837646484376,0.8142756223678589,-0.2781163156032562,-1.108512282371521
1718292446494608600,25.554608642578124,1.054945468902588,-0.05157317966222763,-1.1749742031097412
1718292446544379600,25.604379638671876,1.2592847347259521,-0.2390674352645874,-1.20826256275177
1718292446594150700,25.654150634765625,1.2811309099197388,-0.006779076531529427,-1.3277000188827515
1718292446643921700,25.703921630859377,1.1778093576431274,-0.10057268291711807,-1.3216248750686646
1718292446693691600,25.753691650390625,0.9466054439544678,-0.37258049845695496,-1.157230019569397
1718292446743462700,25.803462646484373,0.8182924389839172,-0.19641000032424927,-0.9314514994621277
1718292446793233700,25.853233642578125,0.643092155456543,0.2752440869808197,-0.6233999133110046
1718292446843004700,25.903004638671874,0.10134313255548477,0.06528420001268387,-0.28034085035324097
1718292446892775700,25.952775634765626,-0.25083327293395996,0.22349168360233307,0.1695898324251175
1718292446942546700,26.002546630859374,-0.532667875289917,0.3886739909648895,0.28885629773139954
1718292446992316700,26.052316650390626,-0.9332672357559204,0.3602716326713562,0.40200895071029663
1718292447042087700,26.102087646484375,-1.054540991783142,0.5888880491256714,0.8117575645446777
1718292447091858700,26.151858642578127,-0.8032509088516235,0.770779013633728,1.2133183479309082
1718292447141629700,26.201629638671875,-0.3731706440448761,0.65863436460495,1.6876049041748047
1718292447191400200,26.251400146484375,-0.19042080640792847,0.555820643901825,1.8779045343399048
1718292447241171200,26.301171142578124,0.1176544576883316,1.0366476774215698,2.059601306915283
1718292447290942200,26.350942138671876,-0.40929242968559265,0.8878906965255737,1.8675845861434937
1718292447340713200,26.400713134765624,-0.32412880659103394,0.3724694550037384,1.447860836982727
1718292447390484200,26.450484130859376,-0.2640308439731598,0.25343412160873413,1.2024062871932983
1718292447440254200,26.500254150390624,-0.21534959971904755,0.462168425321579,0.9069847464561462
1718292447490025200,26.550025146484376,-0.3089999258518219,0.4766530990600586,0.7294358015060425
1718292447539796200,26.599796142578125,-0.30361342430114746,0.03351135551929474,0.5791837573051453
1718292447589567200,26.649567138671873,-0.2451714128255844,0.11433350294828415,0.28061380982398987
1718292447639338200,26.699338134765625,-0.15157514810562134,-0.5199127197265625,-0.16290263831615448
1718292447689108200,26.749108154296874,0.00854155607521534,-0.2635919451713562,-0.2803666889667511
1718292447738879200,26.798879150390626,-0.1706010401248932,-0.42974284291267395,-0.4737851321697235
1718292447788650200,26.848650146484374,-0.2181834727525711,-1.1113914251327515,-0.6166917085647583
1718292447838421000,26.8984208984375,-0.195571631193161,-1.269742488861084,-0.8740656971931458
1718292447888191200,26.948191162109374,-0.2632329761981964,-0.734618067741394,-0.8451432585716248
1718292447937962200,26.997962158203126,-0.15953852236270905,-0.9446123242378235,-0.8178141713142395
1718292447987733200,27.047733154296875,-0.07127364724874496,-0.22456413507461548,-0.5813456773757935
1718292448037504300,27.097504150390623,0.3773379623889923,-0.3915880024433136,-1.192941665649414
1718292448087274200,27.147274169921875,0.12684157490730286,-0.3932442367076874,-1.05164635181427
1718292448137045200,27.197045166015624,0.5718211531639099,-0.5351936221122742,-1.5054410696029663
1718292448186815700,27.246815673828124,0.7358649373054504,-0.5500415563583374,-1.4978182315826416
1718292448236586500,27.29658642578125,0.8890859484672546,-0.27190396189689636,-1.5673578977584839
1718292448286356700,27.346356689453124,0.7954864501953125,-0.24093139171600342,-1.316818118095398
1718292448336127700,27.396127685546876,0.7689552903175354,-0.22984091937541962,-1.1590993404388428
1718292448385898500,27.4458984375,0.7054498195648193,-0.3141358196735382,-0.6954701542854309
1718292448435669800,27.495669677734377,0.7609040141105652,-0.2707603871822357,-0.5839827656745911
1718292448485439700,27.545439697265625,0.5801177024841309,-0.11491646617650986,-0.11369487643241882
1718292448535210500,27.59521044921875,0.43259721994400024,0.2618369460105896,0.34761255979537964
1718292448584981800,27.644981689453125,0.3522360622882843,0.5521308183670044,0.759806215763092
1718292448634751700,27.694751708984374,0.06792712211608887,0.5652013421058655,1.0839356184005737
1718292448684522800,27.744522705078126,-0.3391612768173218,0.2686953842639923,1.8280049562454224
1718292448734293800,27.794293701171874,-0.4424927234649658,0.3795371949672699,1.9520597457885742
1718292448784064800,27.844064697265626,-0.26181671023368835,0.850208044052124,2.099205732345581
1718292448833834800,27.893834716796874,0.09319252520799637,1.3562067747116089,2.2746939659118652
1718292448883605800,27.943605712890626,0.10166431218385696,0.9728045463562012,2.1438241004943848
1718292448933376800,27.993376708984375,0.13735440373420715,0.6834928393363953,2.1609277725219727
1718292448983146800,28.043146728515627,-0.05592558532953262,0.541766881942749,1.8978735208511353
1718292449032917800,28.092917724609375,-0.2781919538974762,0.31066200137138367,1.8365010023117065
1718292449082688500,28.1426884765625,0.10802420228719711,-0.49437350034713745,1.0014889240264893
1718292449132459500,28.19245947265625,0.06873458623886108,-0.18119321763515472,0.2968583106994629
1718292449182229000,28.24222900390625,-0.24729767441749573,0.2670285105705261,0.7081507444381714
1718292449232000000,28.292,-0.3581722676753998,0.45799580216407776,0.2527600824832916
1718292449281771000,28.34177099609375,0.041253428906202316,-0.34023693203926086,-1.19988214969635
1718292449331541000,28.391541015625,0.6128942966461182,-0.12977397441864014,-2.1126251220703125
1718292449381312300,28.441312255859376,0.5411365032196045,-1.0951464176177979,-2.2024481296539307
1718292449431083000,28.4910830078125,0.15476374328136444,-1.2452884912490845,-1.8924529552459717
1718292449480854000,28.54085400390625,0.5259652733802795,-1.1613895893096924,-2.760897636413574
1718292449530624300,28.590624267578125,0.7803714275360107,-1.3360450267791748,-2.4308488368988037
1718292449580395000,28.64039501953125,-0.38689711689949036,-0.7168598175048828,-1.582432746887207
1718292449630166000,28.690166015625,0.03383945673704147,-1.1056413650512695,-1.8499805927276611
1718292449679936300,28.739936279296874,0.3078651428222656,-0.06725866347551346,-2.2310895919799805
1718292449729707000,28.78970703125,0.295210063457489,-0.19613541662693024,-1.952977180480957
1718292449779478000,28.83947802734375,0.0678647980093956,0.1973745971918106,-0.9934110045433044
1718292449829248000,28.889248046875,-0.2570997178554535,0.6324781179428101,0.08888566493988037
1718292449879019000,28.93901904296875,-0.5189810991287231,0.6619758009910583,0.9672371745109558
1718292449928790000,28.9887900390625,-0.8809220194816589,0.6746266484260559,1.6936625242233276
1718292449978560000,29.03856005859375,-0.9819058775901794,0.9671770334243774,2.3634121417999268
1718292450028331000,29.0883310546875,-0.7417066097259521,1.0925482511520386,2.5693233013153076
1718292450078102000,29.13810205078125,-0.40438583493232727,0.6610447764396667,2.4240448474884033
1718292450127872000,29.1878720703125,-0.33698388934135437,0.15775713324546814,2.2248082160949707
1718292450177643300,29.237643310546876,-0.23466923832893372,0.6659466028213501,1.8975520133972168
1718292450227414000,29.2874140625,-0.5212461352348328,0.41527068614959717,1.3304095268249512
1718292450277184300,29.337184326171876,-0.5318329930305481,-0.08898872882127762,1.0640974044799805
1718292450326955000,29.386955078125,-0.17903313040733337,-0.5111226439476013,-0.027636421844363213
1718292450376726300,29.436726318359376,-0.08281765133142471,-0.6156240105628967,-0.8209212422370911
1718292450426496300,29.486496337890625,0.09202073514461517,-0.758233904838562,-1.4461196660995483
1718292450476267000,29.53626708984375,0.03773193061351776,-1.157687783241272,-1.2520614862442017
1718292450526038300,29.586038330078125,0.12216239422559738,-0.3613760471343994,-1.5293292999267578
1718292450575808300,29.635808349609373,0.5218788981437683,-0.9207437038421631,-1.817442536354065
1718292450625579000,29.6855791015625,1.084661602973938,-0.3395130932331085,-1.9268218278884888
1718292450675350300,29.735350341796874,1.494133472442627,-0.4118988811969757,-2.1463263034820557
1718292450725120000,29.7851201171875,1.7498220205307007,-0.016262859106063843,-2.197648286819458
1718292450774891300,29.834891357421874,1.1042568683624268,-0.1332549899816513,-1.5221065282821655
1718292450824662300,29.884662353515626,0.5886968374252319,-0.5080533623695374,-0.9375399947166443
1718292450874432000,29.934431884765626,0.24334155023097992,0.2781354784965515,-0.374262273311615
1718292450924203300,29.984203369140626,-0.5304430723190308,0.9551408290863037,0.7788894176483154
1718292450973973200,30.03397314453125,-0.7528812289237976,1.1577352285385132,1.301857829093933
1718292451023744000,30.083743896484375,-1.0938724279403687,0.669085681438446,2.1924891471862793
1718292451073515300,30.133515380859375,-1.0813184976577759,0.7372626066207886,2.905782699584961
1718292451123285200,30.18328515625,-0.9360731244087219,0.7566695809364319,2.9005322456359863
1718292451173056800,30.233056884765624,-0.5573071837425232,0.6062542200088501,2.641266107559204
1718292451222828000,30.282828125,-0.5192317366600037,0.8900241851806641,2.2472238540649414
1718292451272598000,30.332597900390624,-0.4052225947380066,0.45294803380966187,1.4996049404144287
1718292451322368800,30.38236865234375,-0.12117835879325867,0.5049875378608704,0.5939909219741821
1718292451372140000,30.43214013671875,0.2946454882621765,0.8432806134223938,-0.7922914624214172
1718292451421910000,30.481909912109376,0.4971003234386444,0.6177785396575928,-0.9543280601501465
1718292451471680800,30.5316806640625,0.25326794385910034,-0.6965034604072571,-0.9954994320869446
1718292451521451000,30.581450927734377,0.6438969373703003,-0.8171398639678955,-1.8142800331115723
1718292451571221800,30.6312216796875,0.5796505808830261,-0.6506848335266113,-1.239122748374939
1718292451620993000,30.680992919921874,0.48022252321243286,-1.212594747543335,-1.9395661354064941
1718292451670763000,30.730762939453125,0.7076684832572937,-1.1090306043624878,-1.6769286394119263
1718292451720533800,30.78053369140625,1.0783389806747437,-0.11402377486228943,-2.946465492248535
1718292451770304000,30.830303955078126,0.7103515863418579,-1.3028415441513062,-2.3104872703552246
1718292451820075000,30.880074951171874,0.5464596152305603,-0.7459535598754883,-1.3562155961990356
1718292451869845800,30.929845703125,0.49637994170188904,-0.09959450364112854,-0.3805809020996094
1718292451919616000,30.979615966796874,0.49779993295669556,0.05873095616698265,0.2517896294593811
1718292451969386800,31.02938671875,0.5251503586769104,-0.12023240327835083,0.2876206040382385
1718292452019157000,31.079156982421875,0.6983910799026489,-0.3979833126068115,-0.01649162545800209
1718292452068928000,31.128927978515627,1.3143144845962524,0.05728166550397873,-0.15837925672531128
1718292452118698800,31.17869873046875,0.6656416654586792,-0.042039595544338226,0.07283559441566467
1718292452168468700,31.22846875,0.46494078636169434,-0.4115135073661804,0.1772616058588028
1718292452218239700,31.27823974609375,0.07024380564689636,-0.1753728836774826,0.1956091821193695
1718292452268010000,31.328010009765624,-0.23039458692073822,0.44603127241134644,0.19267357885837555
1718292452317780700,31.37778076171875,-0.678578794002533,0.4806220233440399,0.46844470500946045
1718292452367551700,31.4275517578125,-1.0879920721054077,0.5986719727516174,1.1899067163467407
1718292452417322000,31.477322021484376,-1.19136643409729,0.3388371765613556,1.4079525470733643
1718292452467092700,31.5270927734375,-1.1773366928100586,0.49176838994026184,1.9681159257888794
1718292452516863000,31.576863037109376,-0.7977299094200134,0.09229477494955063,1.8742483854293823
1718292452566633700,31.6266337890625,-0.7298147678375244,0.09972313046455383,2.1945009231567383
1718292452616403700,31.67640380859375,-0.4139343202114105,0.4137239456176758,2.884296417236328
1718292452666175000,31.726175048828125,-0.387487530708313,-0.1300935596227646,1.840137004852295
1718292452715945700,31.77594580078125,-0.5597360134124756,0.3781188130378723,0.8099002838134766
1718292452765715700,31.8257158203125,-0.22368848323822021,-0.38899993896484375,0.18541806936264038
1718292452815487000,31.875487060546874,-0.061468422412872314,-0.8368565440177917,-0.6265946626663208
1718292452865256700,31.925256591796874,-0.01757925935089588,-0.8160708546638489,-1.7674585580825806
1718292452915028000,31.975028076171874,-0.2505030632019043,-1.5041853189468384,-1.1829262971878052
1718292452964797700,32.024797607421874,0.16396337747573853,-1.2105926275253296,-2.8493940830230713
1718292453014568700,32.07456860351562,0.27222326397895813,-0.9255903959274292,-2.6040198802948
1718292453064340000,32.12434008789062,0.1396910548210144,-0.8498133420944214,-2.9563796520233154
1718292453114109700,32.17410961914062,0.19551463425159454,-1.2458558082580566,-2.625086545944214
1718292453163880700,32.22388061523438,0.162342831492424,-0.35426539182662964,-2.076955795288086
1718292453213650400,32.273650390625,-0.44513779878616333,0.08681026101112366,-1.1573253870010376
1718292453263421400,32.32342138671875,-0.3096824884414673,0.08086927980184555,-0.5843167304992676
1718292453313191700,32.37319165039062,-0.7873023152351379,0.4399496912956238,0.5927019715309143
1718292453362962400,32.42296240234375,-0.8869032263755798,1.1383745670318604,2.1210057735443115
1718292453412732700,32.472732666015624,-0.8995298147201538,0.7894259095191956,2.5945212841033936
1718292453462503700,32.52250366210937,-0.807175874710083,1.0971670150756836,3.1327264308929443
1718292453512274400,32.5722744140625,-0.6418502926826477,0.8209995627403259,2.9982454776763916
1718292453562044700,32.62204467773437,-0.5620433688163757,0.3557085692882538,2.679757595062256
1718292453611815400,32.6718154296875,-0.3338983356952667,0.6135624647140503,1.9051284790039062
1718292453661585700,32.72158569335937,-0.3032674789428711,0.18135887384414673,0.7883145809173584
1718292453711356700,32.77135668945313,-0.2651909291744232,0.26710227131843567,0.12012694031000137
1718292453761126400,32.82112646484375,0.2228786200284958,0.15148033201694489,-0.3208667039871216
1718292453810897700,32.87089770507812,0.27365097403526306,-0.11090707778930664,-1.0751327276229858
1718292453860667400,32.92066748046875,0.3964530825614929,-0.5911424160003662,-1.8362820148468018
1718292453910438700,32.97043872070312,0.7755537629127502,-1.0467826128005981,-2.8061907291412354
1718292453960208600,33.020208740234374,0.4331546127796173,-0.48472222685813904,-2.1412441730499268
1718292454009979400,33.0699794921875,0.29709798097610474,-0.8433413505554199,-2.63272762298584
1718292454059749600,33.11974951171875,0.2084517478942871,-0.7333850264549255,-2.5646324157714844
1718292454109520600,33.16952075195312,0.10685507953166962,-0.808217465877533,-2.217057943344116
1718292454159291400,33.21929150390625,-0.16654103994369507,-0.454091876745224,-1.3758894205093384
1718292454209061400,33.26906127929688,-0.28689542412757874,0.1459289789199829,-0.6059162616729736
1718292454258832100,33.31883203125,-0.35232529044151306,0.6101682782173157,0.4780230224132538
1718292454308602400,33.36860229492188,-0.650262713432312,1.396999716758728,2.590991258621216
1718292454358373400,33.41837329101563,-1.3216333389282227,1.5420118570327759,4.371298313140869
1718292454408143400,33.46814331054688,-0.9424881935119629,0.8977494835853577,3.320950508117676
1718292454457914400,33.51791430664063,-0.7184334993362427,-0.17348070442676544,2.163431406021118
1718292454507684400,33.56768432617187,-0.2775740921497345,0.8460327386856079,1.7117081880569458
1718292454557455400,33.61745532226563,-0.5696637630462646,0.3000357151031494,1.046620488166809
1718292454607225300,33.66722534179687,-0.6609163880348206,0.12537017464637756,0.3844435513019562
1718292454656996400,33.71699633789063,0.41991472244262695,-0.20815560221672058,-1.4618858098983765
1718292454706766300,33.76676635742187,0.8616071939468384,-0.2319304347038269,-1.9774706363677979
1718292454756537000,33.816537109375,0.5234128832817078,-0.8747704029083252,-2.4383668899536133
1718292454806307300,33.86630737304687,-0.17308096587657928,-1.0378419160842896,-1.108784794807434
1718292454856078300,33.91607836914063,-0.11064156144857407,-0.9644363522529602,-1.104329228401184
1718292454905848300,33.96584838867187,0.8240933418273926,-1.0141117572784424,-1.8636854887008667
1718292454955619300,34.01561938476563,0.8596782684326172,0.027295004576444626,-1.7867003679275513
1718292455005389300,34.06538940429687,1.018493413925171,-0.4294144809246063,-2.180654764175415
1718292455055160300,34.11516040039062,1.2321830987930298,-0.2950659990310669,-2.2436397075653076
1718292455104930300,34.16493041992187,0.20517206192016602,-0.11667522042989731,-0.6444423794746399
1718292455154702000,34.2147021484375,-0.03073980286717415,0.29396769404411316,0.38569095730781555
1718292455204472000,34.26447216796875,-0.28069424629211426,0.16626007854938507,1.4054653644561768
1718292455254243000,34.3142431640625,-0.5780918598175049,0.530343770980835,2.5388057231903076
1718292455304013000,34.364012939453126,-0.6166996955871582,1.2061249017715454,2.561894178390503
1718292455353784000,34.4137841796875,-0.6585765480995178,1.0357822179794312,2.685999631881714
1718292455403554300,34.46355419921875,-0.2370695322751999,0.7813029885292053,2.6093945503234863
1718292455453325000,34.513324951171874,0.4471080005168915,0.5447128415107727,2.2845613956451416
1718292455503095000,34.563094970703126,-0.1346004158258438,-0.01011149026453495,1.646691918373108
1718292455552866000,34.612865966796875,-0.23270781338214874,-0.272834450006485,1.0245246887207031
1718292455602636000,34.66263598632813,-0.5904358625411987,-0.34206917881965637,0.750453770160675
1718292455652407300,34.7124072265625,-0.3168139159679413,-0.5589359998703003,-0.38058170676231384
1718292455702177000,34.76217700195313,-0.10376501083374023,-0.4804720878601074,-1.2729054689407349
1718292455751948000,34.811947998046875,-0.36235395073890686,-1.5050010681152344,-1.2004547119140625
1718292455801718000,34.86171801757813,-0.4312954843044281,-2.100480079650879,-1.366581916809082
1718292455851489000,34.911489013671876,0.39780303835868835,-1.3123013973236084,-2.0898849964141846
1718292455901259300,34.96125927734375,0.9809892177581787,0.16550932824611664,-2.4055511951446533
1718292455951029000,35.01102905273437,1.0902355909347534,-0.050217099487781525,-2.673564910888672
1718292456000800300,35.06080029296875,1.0812503099441528,-0.4000302255153656,-2.5102686882019043
1718292456050570000,35.11057006835937,0.7500705122947693,-0.46296951174736023,-2.064476490020752
1718292456100341000,35.16034106445313,0.025599902495741844,-0.21633443236351013,-0.8294215202331543
1718292456150111200,35.210111328125,-0.13557326793670654,0.6285840272903442,0.18883037567138672
1718292456199881500,35.259881591796876,-0.5538549423217773,0.9299838542938232,1.4503154754638672
1718292456249651700,35.30965161132813,-0.7346393465995789,1.3879833221435547,2.794140338897705
1718292456299422500,35.35942236328125,-0.6131179928779602,1.25928795337677,3.255216121673584
1718292456349192700,35.40919262695313,0.30331939458847046,0.9508934020996094,2.9549717903137207
1718292456398963700,35.45896362304688,0.4028129577636719,0.6522507667541504,2.5007362365722656
1718292456448733700,35.50873364257812,0.1272045522928238,0.5061681270599365,1.959096074104309
1718292456498504700,35.55850463867188,-0.24594105780124664,0.6823641657829285,1.418498158454895
1718292456548274400,35.6082744140625,-0.06828930974006653,-0.32242944836616516,-0.04104463756084442
1718292456598044700,35.658044677734374,-0.0036248285323381424,-0.1634744107723236,-0.6136237382888794
1718292456647815700,35.70781567382812,-0.16315536201000214,-1.7320421934127808,-0.8458135724067688
1718292456697585700,35.757585693359374,-0.07475386559963226,-0.7042673230171204,-1.9652677774429321
1718292456747356700,35.80735668945312,0.5859678983688354,-0.6116684675216675,-2.414710521697998
1718292456797126700,35.857126708984374,0.4831791818141937,-0.8036102056503296,-2.5394253730773926
1718292456846897700,35.90689770507812,0.6502435207366943,-1.5692932605743408,-3.0387163162231445
1718292456896667400,35.95666748046875,0.44570156931877136,-0.6476128697395325,-2.5196688175201416
1718292456946438700,36.00643872070312,0.1448136419057846,-0.5530245900154114,-2.1009342670440674
1718292456996208600,36.056208740234375,-0.1444045752286911,-0.134025439620018,-1.2914658784866333
1718292457045979400,36.1059794921875,-0.3321177661418915,0.528775691986084,-0.34695902466773987
1718292457095749600,36.15574951171875,-0.8225729465484619,1.1545127630233765,1.1489307880401611
1718292457145519600,36.20551953125,-0.8112092614173889,1.416426420211792,2.3521111011505127
1718292457195291100,36.255291015625,-0.8016247749328613,0.9918626546859741,3.0443227291107178
1718292457245061000,36.30506103515625,-0.23725569248199463,0.9392061233520508,3.2008798122406006
1718292457294831900,36.354831787109376,-0.28326791524887085,0.6757537126541138,3.2853243350982666
1718292457344602000,36.40460205078125,-0.23492543399333954,1.01801598072052,2.8044919967651367
1718292457394373000,36.454373046875,-0.2466968595981598,0.6391421556472778,2.345590591430664
1718292457444143000,36.50414306640625,-0.2792665362358093,0.9836183190345764,1.5054048299789429
1718292457493913000,36.5539130859375,0.3893517553806305,0.6734127402305603,-0.13745400309562683
1718292457543684000,36.60368408203125,0.6914026737213135,0.24776212871074677,-1.0728226900100708
1718292457593454000,36.6534541015625,0.5569817423820496,-0.1817314475774765,-2.110990047454834
1718292457643225000,36.70322509765625,0.5308135151863098,-0.35852858424186707,-2.6371328830718994
1718292457692995000,36.7529951171875,0.349114328622818,-0.77189701795578,-2.493166208267212
1718292457742766000,36.80276611328125,1.0532528162002563,-1.2066023349761963,-3.7179224491119385
1718292457792536000,36.8525361328125,1.2225805521011353,-0.3447344899177551,-3.376220464706421
1718292457842306000,36.90230615234375,0.789617121219635,-0.7857726216316223,-3.171200752258301
1718292457892077300,36.952077392578126,-0.2608185410499573,0.18259698152542114,-0.46108850836753845
1718292457941847000,37.001846923828126,-0.2675662040710449,0.22898417711257935,0.5502455830574036
1718292457991618000,37.0516181640625,-0.5601677298545837,0.5762507915496826,1.8611564636230469
1718292458041388000,37.101387939453126,-0.6160690784454346,1.101051688194275,2.901323080062866
1718292458091159000,37.151158935546874,-0.3473483622074127,1.5084950923919678,3.1656813621520996
1718292458140929000,37.200928955078126,0.2746693789958954,1.6912615299224854,3.1870901584625244
1718292458190698500,37.250698486328126,0.36136752367019653,0.8515055179595947,2.9273223876953125
1718292458240469800,37.3004697265625,0.25492149591445923,0.8601794242858887,2.182636022567749
1718292458290239500,37.350239501953126,-0.0028445222415030003,0.43649956583976746,0.7710727453231812
1718292458340010800,37.4000107421875,0.5062400102615356,0.4351346790790558,-1.0068259239196777
1718292458389780700,37.44978076171875,0.8330077528953552,0.02564038150012493,-1.5114794969558716
1718292458439550700,37.49955078125,0.7754102349281311,-1.0580397844314575,-1.9442764520645142
1718292458489321700,37.54932177734375,0.6937332153320312,-0.7904355525970459,-2.4913132190704346
1718292458539091700,37.599091796875,1.1134122610092163,-1.098192572593689,-2.851870059967041
1718292458588862700,37.64886279296875,0.7315370440483093,-0.9489498138427734,-2.716442584991455
1718292458638632700,37.6986328125,0.5266408920288086,-1.0811491012573242,-2.6552834510803223
1718292458688402700,37.748402587890624,0.35821834206581116,-0.772879421710968,-1.7939393520355225
1718292458738173700,37.79817358398437,0.2386314868927002,-0.15883998572826385,-0.9908511638641357
1718292458787943700,37.847943603515624,0.07597039639949799,0.32988283038139343,0.189539834856987
1718292458837714700,37.89771459960937,-0.17034883797168732,1.0538322925567627,1.8348796367645264
1718292458887484700,37.947484619140624,-0.4053405821323395,1.0624260902404785,2.719046115875244
1718292458937254700,37.997254638671876,-0.5538176894187927,1.0458406209945679,3.153190851211548
1718292458987025700,38.047025634765625,-0.4514305591583252,0.4190899431705475,2.8420519828796387
1718292459036795600,38.096795654296876,-0.9496248960494995,0.2076868861913681,2.6763815879821777
1718292459086566700,38.146566650390625,-0.6905102729797363,0.09430120140314102,2.3006954193115234
1718292459136336600,38.19633666992188,-0.6757369041442871,0.40305131673812866,1.3175605535507202
1718292459186107000,38.24610693359375,-0.1760368049144745,-0.04366438835859299,-0.2528732717037201
1718292459235877600,38.29587768554688,0.10558368265628815,-0.1980249285697937,-0.9536774754524231
1718292459285648000,38.34564794921875,-0.17480243742465973,-0.5760862231254578,-1.0935804843902588
1718292459335417900,38.39541796875,0.03446023911237717,-0.6105831861495972,-1.8582606315612793
1718292459385188900,38.44518896484375,0.28814709186553955,-0.8387226462364197,-2.2482261657714844
1718292459434958800,38.494958740234374,0.38684171438217163,-0.7539153099060059,-2.455704927444458
1718292459484729900,38.54472973632812,0.8247881531715393,-0.5668621063232422,-2.652146816253662
1718292459534499800,38.594499755859374,0.668952226638794,-0.45123401284217834,-2.7082602977752686
1718292459589246700,38.649246826171876,0.4797985553741455,-0.6902087926864624,-1.7590328454971313
1718292459639017700,38.699017822265624,0.28427326679229736,0.06908665597438812,-0.6540420055389404
1718292459688788000,38.7487880859375,-0.23926931619644165,0.8275509476661682,0.7064788341522217
1718292459738557700,38.7985576171875,-0.40535202622413635,1.1898125410079956,2.3485448360443115
1718292459788329000,38.848328857421876,-0.24919091165065765,1.1969611644744873,2.953338623046875
1718292459838098700,38.8980986328125,-0.09239118546247482,1.488074779510498,3.124749183654785
1718292459887869000,38.94786889648437,0.04280472174286842,0.8334136009216309,3.17329478263855
1718292459937640000,38.99763989257813,0.4159684479236603,0.9779268503189087,2.715437889099121
1718292459987410000,39.04740991210937,0.48972630500793457,1.3627136945724487,2.03483510017395
1718292460037181000,39.09718090820313,0.49823933839797974,1.1526321172714233,0.617393434047699
1718292460086950700,39.14695068359375,0.7318350672721863,0.457306832075119,-0.3763786852359772
1718292460136721000,39.196720947265625,1.1519724130630493,0.432762086391449,-1.352002739906311
1718292460186491100,39.2464912109375,1.1205122470855713,0.07813262194395065,-1.9252151250839233
1718292460236261400,39.29626147460937,0.7630459666252136,-1.24589204788208,-2.297537088394165
1718292460286031400,39.34603125,0.837198793888092,-0.8696714639663696,-2.793626308441162
1718292460335802400,39.39580224609375,1.1378827095031738,-0.9557555317878723,-3.2817132472991943
1718292460385572000,39.445572021484374,0.911176860332489,-1.4153997898101807,-3.125976324081421
1718292460435342300,39.49534228515625,0.3016389310359955,-0.8929435014724731,-2.202453851699829
1718292460485113300,39.54511328125,0.026154639199376106,-0.5900619626045227,-1.1066228151321411
1718292460534883300,39.59488330078125,-0.2790806293487549,0.5450665354728699,0.4039120376110077
1718292460584653300,39.6446533203125,-0.5370280146598816,1.1146687269210815,1.75954008102417
1718292460634424300,39.69442431640625,-0.7165365219116211,1.438694953918457,3.17339825630188
1718292460684194300,39.7441943359375,-0.5652221441268921,1.0237843990325928,3.613727569580078
1718292460733964300,39.79396435546875,-0.302004337310791,0.5580744743347168,3.304111957550049
1718292460783734300,39.843734375,-0.5528397560119629,0.13752830028533936,2.87730073928833
1718292460833505300,39.89350537109375,-0.4127580225467682,0.3328051269054413,1.8869023323059082
1718292460883275300,39.943275146484375,-0.20352062582969666,0.08841188997030258,0.495525062084198
1718292460933045500,39.99304541015625,0.4502513110637665,-0.09596887230873108,-0.46647608280181885
1718292460982816300,40.042816162109375,0.3830413818359375,-0.2760568857192993,-1.2273625135421753
1718292461032586200,40.09258618164063,0.07276342064142227,-1.4946285486221313,-1.9124159812927246
1718292461082356200,40.14235620117187,0.36520832777023315,-1.1535674333572388,-2.076080560684204
1718292461132127200,40.19212719726563,0.8394728302955627,-1.240315318107605,-3.2541890144348145
1718292461181898800,40.24189868164063,0.8369630575180054,-0.1536089926958084,-3.147840738296509
1718292461231669000,40.2916689453125,0.6778535842895508,-0.8637608885765076,-3.0180981159210205
1718292461281438700,40.341438720703124,0.29331761598587036,-0.6969069242477417,-1.954365849494934
1718292461331210000,40.3912099609375,-0.14298725128173828,0.3785467743873596,-0.6298977732658386
1718292461380980000,40.44097998046875,-0.5370261669158936,1.346487283706665,1.3411543369293213
1718292461430750000,40.49075,-0.5223316550254822,1.4802964925765991,2.6518783569335938
1718292461480521000,40.54052099609375,-0.42327404022216797,1.2350891828536987,3.429680585861206
1718292461530291000,40.590291015625,0.23485538363456726,0.7325993776321411,3.3613736629486084
1718292461580061000,40.64006103515625,0.1069493517279625,0.785203218460083,3.2119944095611572
1718292461629831000,40.68983081054687,-0.10884126275777817,0.6904823184013367,2.7239904403686523
1718292461679602000,40.73960180664063,-0.21451309323310852,0.7275524139404297,1.6787710189819336
1718292461729372000,40.78937182617187,0.3505566716194153,-0.27686142921447754,-0.5253820419311523
1718292461779142000,40.839141845703125,0.4799210727214813,-0.46173033118247986,-1.4717859029769897
1718292461828913000,40.88891284179687,0.3184637427330017,-1.270926833152771,-1.9395653009414673
1718292461878683000,40.938682861328125,0.2716381549835205,-1.0640441179275513,-2.2585384845733643
1718292461928452900,40.98845288085938,0.5356290936470032,-1.3146220445632935,-2.879929304122925
1718292461978222800,41.03822290039062,0.7648369669914246,-0.541847288608551,-3.0493717193603516
1718292462027993900,41.08799389648438,0.41085144877433777,-0.914922833442688,-2.950874090194702
1718292462077764000,41.13776416015625,0.2948859632015228,-1.0651142597198486,-2.483231544494629
1718292462127533800,41.187533935546874,0.10413385927677155,-0.33001625537872314,-1.0256227254867554
1718292462177302000,41.237302001953125,-0.08948194235563278,0.6225029826164246,0.6508339643478394
1718292462227073000,41.287072998046874,-0.31306231021881104,1.382190227508545,2.532111644744873
1718292462276843000,41.336843017578126,-0.4414213299751282,1.4843688011169434,3.3417675495147705
1718292462326613000,41.38661303710938,-0.5252664685249329,0.5770622491836548,3.4161880016326904
1718292462376383000,41.43638305664062,-0.6846379637718201,0.2156023234128952,3.3186535835266113
1718292462426153000,41.486153076171874,-0.8300979733467102,0.26165875792503357,2.805131435394287
1718292462475924000,41.53592407226562,-0.7437561750411987,0.07168696820735931,1.8095060586929321
1718292462525694200,41.585694091796874,-0.1125103011727333,-0.4769817292690277,-0.3249530494213104
1718292462575464000,41.6354638671875,0.07819893211126328,-0.48365429043769836,-1.5068697929382324
1718292462625234200,41.68523413085938,-0.022902119904756546,-1.230515718460083,-2.141582727432251
1718292462675005000,41.7350048828125,-0.2566664218902588,-1.310396671295166,-2.370924234390259
1718292462724775200,41.78477514648438,0.32832062244415283,-1.1574130058288574,-2.7628555297851562
1718292462774545000,41.834544921875,0.9087193012237549,-0.2644774615764618,-3.643211603164673
1718292462824315100,41.884315185546875,0.5525678396224976,-0.5528218746185303,-3.1143109798431396
1718292462874086100,41.93408618164062,0.3851546049118042,-0.7611184120178223,-2.167039155960083
1718292462923856100,41.983856201171875,-0.2910004258155823,0.5462076663970947,-0.5522730350494385
1718292462973626000,42.03362622070313,-0.7696881890296936,1.1512640714645386,1.3500242233276367
1718292463023396000,42.08339599609375,-0.7375664710998535,1.5726146697998047,2.8910903930664062
1718292463073166000,42.133166015625,-0.585045337677002,1.147273063659668,3.7777767181396484
1718292463122937000,42.18293701171875,-0.19787366688251495,0.904602587223053,3.514126777648926
1718292463172707800,42.232707763671876,-0.43029385805130005,0.41401341557502747,3.1709048748016357
1718292463222477800,42.28247778320313,-0.22805553674697876,1.0690006017684937,2.553178071975708
1718292463272247800,42.33224780273437,-0.07313626259565353,0.42601868510246277,1.096260905265808
1718292463322017800,42.382017822265624,0.24799968302249908,0.029758160933852196,-0.6128655076026917
1718292463371788800,42.43178881835937,0.4007897675037384,-0.2234136462211609,-1.730615496635437
1718292463421558800,42.481558837890624,0.3328101933002472,-1.0155460834503174,-2.045741319656372
1718292463471328800,42.531328857421876,0.5488817691802979,-1.3239191770553589,-2.525329351425171
1718292463521098800,42.5810986328125,0.8151270151138306,-0.13512666523456573,-3.1892547607421875
1718292463570868700,42.63086865234375,0.7528756260871887,-0.9116826057434082,-3.491481065750122
1718292463620639700,42.6806396484375,0.6831911206245422,-1.2301216125488281,-2.5722482204437256
1718292463670410000,42.73040991210937,0.5674834251403809,-0.9551991820335388,-1.4884735345840454
1718292463720179700,42.7801796875,0.03642245754599571,-0.0008085357258096337,-0.25988298654556274
1718292463769950000,42.829949951171876,-0.2786635756492615,0.7622212171554565,1.7974801063537598
1718292463819719700,42.8797197265625,-0.488952100276947,1.3953230381011963,3.2991926670074463
1718292463869490000,42.92948999023437,-0.7746943831443787,1.483229398727417,3.855464220046997
1718292463919260700,42.9792607421875,-0.2633272409439087,0.8627089262008667,3.2944939136505127
1718292463969031000,43.02903100585937,-0.16465073823928833,0.35897067189216614,2.962122678756714
1718292464018800600,43.07880053710937,-0.4071211516857147,0.6910445094108582,2.2826364040374756
1718292464068571000,43.12857080078125,-0.20405912399291992,-0.7569050192832947,-0.0461089052259922
1718292464118340600,43.17834057617188,-0.15852253139019012,-0.8557034730911255,-0.5855942368507385
1718292464168110300,43.2281103515625,-0.33543819189071655,-1.5959930419921875,-1.521235466003418
1718292464217881300,43.27788134765625,0.08803930878639221,-0.752929151058197,-2.369184732437134
1718292464267651600,43.32765161132812,0.5114219784736633,-1.6593871116638184,-3.187959671020508
1718292464317421300,43.37742138671875,0.9827791452407837,0.06384608894586563,-3.2586870193481445
1718292464367191600,43.427191650390625,0.9569443464279175,-0.7251425385475159,-3.1636414527893066
1718292464416961500,43.47696142578125,0.4706641733646393,-1.0951166152954102,-2.5054612159729004
1718292464466731500,43.5267314453125,0.06991570442914963,0.2300845980644226,-0.9158464670181274
1718292464516501500,43.57650146484375,-0.4149615168571472,1.0801466703414917,0.7829496264457703
1718292464566272500,43.6262724609375,-0.6123148202896118,1.583480954170227,2.704667568206787
1718292464616042500,43.67604248046875,-0.45418375730514526,1.680977463722229,3.5756428241729736
1718292464665812500,43.7258125,0.05699644237756729,0.9586314558982849,3.5700788497924805
1718292464715582500,43.77558251953125,-0.10720980912446976,0.7283857464790344,3.388523817062378
1718292464765352400,43.8253525390625,-0.2712024748325348,0.2879718542098999,2.6988234519958496
1718292464815122400,43.87512231445312,-0.2577042281627655,0.4534492492675781,1.3077290058135986
1718292464864892400,43.924892333984374,0.0010572749888524413,-0.22896607220172882,-0.5867431163787842
1718292464914662400,43.974662353515626,0.04412245377898216,-0.5264739394187927,-1.6026620864868164
1718292464964433400,44.024433349609374,-0.0725221335887909,-0.7238370776176453,-1.866124153137207
1718292465014203600,44.07420361328125,0.23307906091213226,-1.6126846075057983,-2.7117624282836914
1718292465063973400,44.12397338867188,1.0811089277267456,-0.7695280909538269,-3.418426990509033
1718292465113743600,44.17374365234375,1.0697548389434814,-0.37861841917037964,-3.3693935871124268
1718292465163513600,44.223513671875,0.5301823616027832,-1.300689458847046,-2.7521588802337646
1718292465213283600,44.27328369140625,0.46492934226989746,-0.5585250854492188,-1.6334484815597534
1718292465263053600,44.32305346679688,-0.2906547486782074,0.5256634950637817,0.19179819524288177
1718292465312823600,44.37282348632812,-0.29099616408348083,1.2976247072219849,1.970741868019104
1718292465362594600,44.42259448242187,-0.5209036469459534,1.7325433492660522,3.524683713912964
1718292465412364500,44.47236450195312,-0.30340301990509033,1.4914900064468384,3.8845362663269043
1718292465462134500,44.522134521484375,0.17063592374324799,0.6350757479667664,3.443317413330078
1718292465511904500,44.57190454101563,0.021168401464819908,0.7565438747406006,2.8035967350006104
1718292465561674500,44.62167456054687,-0.41818714141845703,0.5605181455612183,2.0079329013824463
1718292465611444500,44.67144458007812,0.08559080213308334,0.016459399834275246,0.3415037989616394
1718292465661214500,44.72121435546875,0.3546385169029236,-0.11580543220043182,-1.5833011865615845
1718292465710984400,44.770984375,0.38580334186553955,-0.719153881072998,-2.2705345153808594
1718292465760754700,44.82075463867187,0.06385408341884613,-1.0897215604782104,-2.3163607120513916
1718292465810524400,44.8705244140625,0.9097003936767578,-1.1741938591003418,-3.5245249271392822
1718292465860295400,44.92029541015625,0.7998633980751038,-0.3377721905708313,-3.9770357608795166
1718292465910065700,44.970065673828124,0.6728053092956543,-1.5418552160263062,-3.6032259464263916
1718292465959835600,45.019835693359376,0.2167607992887497,-0.7413334846496582,-1.9286489486694336
1718292466009605600,45.06960571289063,-0.16539588570594788,0.4085472822189331,-0.08053851872682571
1718292466059375600,45.11937573242187,-0.503589928150177,1.556120753288269,2.2285287380218506
1718292466109145600,45.1691455078125,-0.5304553508758545,1.4960815906524658,3.2287790775299072
1718292466158915600,45.21891552734375,-0.4716714024543762,1.2900333404541016,3.965109348297119
1718292466208685600,45.268685546875,0.15981203317642212,0.46010181307792664,3.8649072647094727
1718292466258455800,45.31845581054687,-0.18239857256412506,0.3691372871398926,3.1998438835144043
1718292466308225500,45.3682255859375,-0.33755218982696533,0.5565370321273804,2.115523099899292
1718292466357995800,45.417995849609376,-0.09110274910926819,-0.06884564459323883,0.11539210379123688
1718292466407765500,45.467765625,0.2931613028049469,0.08575139194726944,-0.4510396122932434
1718292466457535700,45.51753564453125,0.10199214518070221,-0.7768558263778687,-1.2534271478652954
1718292466507306500,45.567306396484376,0.20286469161510468,-0.9314208626747131,-2.162579298019409
1718292466557076700,45.61707666015625,0.6438612937927246,-1.122557282447815,-2.4854254722595215
1718292466606846500,45.66684643554687,0.6776487827301025,-0.6784216165542603,-3.0223207473754883
1718292466656616700,45.71661669921875,0.5710067749023438,-0.5217779874801636,-2.9099185466766357
1718292466706386700,45.76638671875,0.49436312913894653,-1.3780574798583984,-2.587435483932495
1718292466756156700,45.81615673828125,0.6583129167556763,-1.1436476707458496,-1.6536980867385864
1718292466805927000,45.865927001953125,0.34666740894317627,0.18389606475830078,-0.5404922962188721
1718292466855696600,45.915696533203125,-0.05717114359140396,0.9682260155677795,1.3665212392807007
1718292466905467000,45.965466796875,-0.36782968044281006,1.487541675567627,2.9591004848480225
1718292466955236600,46.01523657226563,-0.466202050447464,1.2257989645004272,3.5610878467559814
1718292467005006800,46.0650068359375,-0.39211663603782654,0.7667728066444397,3.251444101333618
1718292467054776600,46.114776611328125,-0.42351850867271423,-0.05685742199420929,2.832622528076172
1718292467104546800,46.164546875,-0.5445911288261414,0.4842585623264313,2.2884104251861572
1718292467154316500,46.21431665039062,-0.4928480386734009,0.5039047002792358,1.3475984334945679
1718292467204086300,46.26408618164062,-0.2260885238647461,-0.7518681883811951,-0.2331261932849884
1718292467253856500,46.3138564453125,-0.0538717545568943,-0.4532412588596344,-1.2199770212173462
1718292467303626200,46.363626220703125,0.1639961302280426,-0.9284802079200745,-1.6578739881515503
1718292467353396500,46.413396484375,0.329610139131546,-1.772309422492981,-2.615079879760742
1718292467403166200,46.46316625976562,0.8665755391120911,-0.15943573415279388,-3.2022974491119385
1718292467452936400,46.5129365234375,1.0219612121582031,-0.5371593236923218,-3.6084258556365967
1718292467502706200,46.5627060546875,0.7369810938835144,-0.9984265565872192,-2.8235297203063965
1718292467552477400,46.6124775390625,0.3274889290332794,-0.8254664540290833,-1.554202675819397
1718292467602247200,46.6622470703125,0.026557574048638344,0.007832356728613377,-0.2973078489303589
1718292467652017400,46.71201733398438,-0.1330840140581131,0.5994820594787598,1.0699774026870728
1718292467701787100,46.761787109375,-0.4117279052734375,1.2673629522323608,2.6075234413146973
1718292467751557400,46.811557373046874,-0.5430063009262085,1.6183528900146484,3.1704978942871094
1718292467801327000,46.8613271484375,-0.463847279548645,0.9544132947921753,3.2725706100463867
1718292467851097300,46.91109741210938,-0.11895861476659775,0.41600334644317627,3.0494120121002197
1718292467900867300,46.96086743164062,-0.2698304057121277,0.5963347554206848,2.7105021476745605
1718292467950637300,47.01063720703125,-0.24586889147758484,0.6291422247886658,1.7520790100097656
1718292468000407300,47.0604072265625,0.047316115349531174,-0.6360781788825989,-0.15384069085121155
1718292468050177300,47.11017724609375,0.2408197969198227,0.17533746361732483,-1.2484427690505981
1718292468099947300,47.159947265625,0.057310160249471664,-1.0901132822036743,-1.8897855281829834
1718292468149717200,47.20971728515625,-0.04779175668954849,-1.1008679866790771,-2.262322187423706
1718292468199488000,47.25948803710938,0.4778009355068207,-1.3776713609695435,-2.960879325866699
1718292468249258000,47.30925805664062,0.7009615898132324,-0.4793820381164551,-3.1914355754852295
1718292468299028000,47.359028076171874,0.6993224024772644,-0.7635474801063538,-3.048024892807007
1718292468348798000,47.4087978515625,0.2818489968776703,-0.8503260016441345,-2.0791823863983154
1718292468398568000,47.45856787109375,0.3522166311740875,-0.5817819237709045,-1.0230770111083984
1718292468448338000,47.508337890625,-0.24909184873104095,0.4120842218399048,0.7544248104095459
1718292468498108000,47.55810791015625,-0.27008792757987976,1.4403517246246338,2.7939836978912354
1718292468547878100,47.60787817382813,-0.2332521677017212,1.5697544813156128,3.6582226753234863
1718292468597648000,47.65764794921875,-0.19566990435123444,0.3931901752948761,3.4150238037109375
1718292468647418000,47.70741821289062,-0.7079792618751526,0.1764109879732132,3.178142547607422
1718292468697187800,47.75718774414062,-0.6402268409729004,0.4204374849796295,2.7059502601623535
1718292468746958000,47.8069580078125,-0.8779091835021973,0.24761831760406494,1.880563497543335
1718292468796727800,47.85672778320313,-0.22695058584213257,-0.7889436483383179,-0.5168982744216919
1718292468846497000,47.9064970703125,0.018374746665358543,-0.2652234137058258,-1.2270456552505493
1718292468896267000,47.95626708984375,-0.01733851060271263,-1.3468923568725586,-1.8062742948532104
1718292468946037000,48.006037109375,0.27241528034210205,-1.342297077178955,-2.624558925628662
1718292468995807000,48.05580688476562,0.7616022825241089,-0.6969929337501526,-3.462125301361084
1718292469045577000,48.105576904296875,0.8665097951889038,-0.2164105921983719,-3.145704507827759
1718292469095347000,48.15534692382813,0.8435536026954651,-0.9829895496368408,-2.7541542053222656
1718292469145117000,48.20511694335938,0.5618728995323181,-0.9115835428237915,-1.929868221282959
1718292469194887200,48.25488720703125,0.24185150861740112,-0.16689658164978027,-0.5680623650550842
1718292469244657200,48.3046572265625,-0.39094486832618713,1.0044317245483398,1.5584608316421509
1718292469294427100,48.35442724609375,-0.7951903343200684,1.4636751413345337,3.162294626235962
1718292469344197400,48.404197265625,-0.8293469548225403,1.6834131479263306,3.743429660797119
1718292469393967000,48.45396704101562,-0.29029229283332825,0.10749716311693192,3.1792185306549072
1718292469443737300,48.5037373046875,-0.5236879587173462,-0.05668378621339798,2.7122626304626465
1718292469493507000,48.55350708007813,-0.7445985078811646,0.6008293628692627,2.3494696617126465
1718292469543277300,48.60327734375,-0.22769388556480408,-0.364768922328949,0.37637895345687866
1718292469593047000,48.65304711914062,-0.08644354343414307,-0.30252790451049805,-0.8317968249320984
1718292469642817300,48.7028173828125,0.00242187874391675,-0.9046129584312439,-1.828352451324463
1718292469692587300,48.75258715820313,0.04960137605667114,-1.478057622909546,-2.801405668258667
1718292469742357200,48.80235717773437,0.538722574710846,-0.6522569060325623,-2.8411900997161865
1718292469792127200,48.852127197265624,1.101841926574707,-0.3469015061855316,-3.9818642139434814
1718292469841897200,48.901897216796876,0.32566386461257935,-0.9903950095176697,-2.6681597232818604
1718292469891667200,48.95166723632813,0.027528030797839165,-0.7570578455924988,-2.014695644378662
1718292469941436400,49.0014365234375,-0.183186337351799,-0.2179539054632187,-0.75577712059021
1718292469991206100,49.0512060546875,-0.5700054168701172,0.7141964435577393,0.9569706916809082
1718292470040976400,49.10097631835937,-0.6342523097991943,1.0733247995376587,1.7071589231491089
1718292470090746000,49.15074609375,-0.5328015685081482,0.8671678304672241,1.5199904441833496
1718292470140516400,49.200516357421876,-0.33925288915634155,0.6442381143569946,1.6726337671279907
1718292470190285800,49.250285888671876,-0.13425980508327484,0.9059439897537231,1.9046610593795776
1718292470240055800,49.30005590820313,-0.14986112713813782,0.7732799649238586,1.7874258756637573
1718292470289825800,49.34982568359375,-0.1543799787759781,0.568600058555603,1.758259892463684
1718292470339595800,49.399595703125,0.1063232421875,0.3113219439983368,1.3069300651550293
1718292470389366000,49.449365966796876,-0.03904886543750763,0.3734135329723358,1.2234461307525635
1718292470439135700,49.4991357421875,0.08295347541570663,0.24537433683872223,0.8127443194389343
1718292470488906000,49.54890600585937,0.30757540464401245,0.09955721348524094,0.3678552508354187
1718292470538675700,49.59867578125,0.1913936585187912,0.39149612188339233,0.18608039617538452
1718292470588446000,49.648446044921876,0.18826285004615784,0.08484431356191635,-0.05266107991337776
1718292470638215700,49.698215576171876,0.07522444427013397,0.17281731963157654,0.014853248372673988
1718292470687984600,49.747984619140624,-0.0720805823802948,0.20274512469768524,-0.15572381019592285
1718292470737755000,49.7977548828125,-0.009616674855351448,0.16292020678520203,-0.12794092297554016
1718292470787524600,49.84752465820313,-0.12344656884670258,0.17551882565021515,0.0784362182021141
1718292470837294800,49.897294921875,-0.04224492609500885,-0.14398859441280365,0.11909016966819763
1718292470887064600,49.947064697265624,0.2537688910961151,0.09255310148000717,0.11873623728752136
1718292470936834800,49.996834716796876,0.24006879329681396,0.19923295080661774,0.2528679370880127
1718292470986604800,50.04660473632813,0.33710187673568726,0.06385860592126846,0.19293616712093353
1718292471036374800,50.09637475585937,0.20669911801815033,-0.04181242734193802,0.21903754770755768
1718292471086145000,50.14614501953125,0.24615171551704407,-0.012603409588336945,0.18322521448135376
1718292471135914800,50.195914794921876,0.2253606915473938,-0.0163616631180048,0.1883925497531891
1718292471185685200,50.24568530273437,0.30066367983818054,0.12584900856018066,0.11015233397483826
1718292471235455000,50.295455078125,0.22499236464500427,0.13041366636753082,0.3398425281047821
1718292471285224000,50.34522387695313,0.07566386461257935,-0.012650813907384872,0.6295574307441711
1718292471334994200,50.394994140625,0.8185481429100037,-0.7493605017662048,-0.4081696569919586
1718292471384764000,50.444763916015624,-0.1733637899160385,0.8053191304206848,0.2747657895088196
1718292471434534100,50.4945341796875,0.23669029772281647,0.29998165369033813,0.2448989599943161
1718292471484304000,50.54430395507813,-0.24471387267112732,-0.17044204473495483,0.47435957193374634
1718292471534074000,50.59407421875,0.1466674655675888,-0.3476647734642029,-0.17969518899917603
1718292471583843800,50.64384375,0.4898639917373657,0.43588677048683167,-0.22261576354503632
1718292471633614000,50.693614013671876,-0.4291204810142517,1.820473313331604,1.7194215059280396
1718292471683384000,50.74338403320313,0.33907338976860046,-1.0550687313079834,-1.1553421020507812
1718292471733154000,50.79315405273437,-0.853937566280365,-0.6031103730201721,0.35769128799438477
1718292471782924300,50.84292431640625,-0.5753330588340759,-0.8386281132698059,0.06240905076265335
1718292471832693000,50.89269287109375,-0.610658586025238,-0.4412035048007965,-0.03381096199154854
1718292471882463000,50.942462890625,-0.4029032588005066,0.22864489257335663,-0.670809268951416
1718292471932233200,50.992233154296876,-0.42008569836616516,-0.1596679538488388,-0.12008219957351685
1718292471982003000,51.0420029296875,-0.5028024315834045,-0.3174256384372711,-0.16895920038223267
1718292472031773200,51.09177319335937,-0.369625449180603,-0.2717260420322418,-0.13887879252433777
1718292472081543000,51.14154296875,-0.43655893206596375,-0.29702022671699524,-0.07132291793823242
1718292472131313200,51.19131323242188,-0.5502200126647949,-0.014400244690477848,0.03713724762201309
1718292472181083100,51.24108325195313,-0.6215660572052002,-0.16773226857185364,0.07703539729118347
1718292472230853000,51.29085302734375,-0.6785385608673096,0.03863181546330452,0.42292940616607666
1718292472280623000,51.340623046875,-0.2862676978111267,0.353225439786911,0.48601385951042175
1718292472330393000,51.39039306640625,-0.16833707690238953,0.4611886441707611,0.39063405990600586
1718292472380163000,51.4401630859375,-0.09484794735908508,0.144950270652771,-0.07586706429719925
1718292472429932000,51.48993212890625,-0.18596135079860687,0.055452074855566025,-0.14363279938697815
1718292472479702300,51.53970239257813,0.09820566326379776,0.1387040913105011,-0.5247378349304199
1718292472529472000,51.58947192382813,0.3479084372520447,0.18093836307525635,-0.804926335811615
1718292472579242200,51.6392421875,0.38469547033309937,-0.04283108562231064,-1.4020153284072876
1718292472629012200,51.68901220703125,0.5414456725120544,-0.2555486857891083,-1.860310673713684
1718292472678782200,51.7387822265625,0.6675087809562683,-0.4176265299320221,-2.2124710083007812
1718292472728552200,51.78855224609375,0.6032930612564087,-0.516139805316925,-2.150660753250122
1718292472778322200,51.838322265625,0.9695469737052917,-0.6033492684364319,-2.3693699836730957
1718292472828092200,51.888092041015625,1.2838481664657593,-0.8149845600128174,-2.6197164058685303
1718292472877862100,51.93786206054688,0.699509859085083,-0.5792686939239502,-1.811018466949463
1718292472927632100,51.98763208007812,0.6807849407196045,-0.1642531156539917,-0.9892429113388062
1718292472977401300,52.0374013671875,0.011936021968722343,0.004491155035793781,0.15343429148197174
1718292473027171000,52.08717114257813,-0.10643190145492554,0.6474400162696838,1.3644332885742188
1718292473076941300,52.13694140625,-0.5789256691932678,1.6131880283355713,2.624847412109375
1718292473126711000,52.1867109375,-0.7594192624092102,0.7153088450431824,3.0135059356689453
1718292473176480300,52.23648022460937,0.016028767451643944,0.414834201335907,3.4097652435302734
1718292473226250500,52.28625048828125,0.16351675987243652,0.5852221846580505,3.1285126209259033
1718292473276020200,52.33602026367188,-0.29368701577186584,0.44315800070762634,2.631442070007324
1718292473325790500,52.38579052734375,-0.09637367725372314,0.443857342004776,1.1337238550186157
1718292473375560200,52.43556030273437,0.05029086768627167,-0.28754550218582153,-0.1305774450302124
1718292473425330400,52.485330322265625,0.35510963201522827,-0.7465569972991943,-1.2664425373077393
1718292473475099400,52.53509936523437,0.6051586270332336,-0.718707263469696,-2.009803056716919
1718292473524869000,52.584869140625,0.666702389717102,-1.3225675821304321,-2.8793752193450928
1718292473574639400,52.63463940429688,0.5796844363212585,-0.6958970427513123,-3.0371837615966797
1718292473624409000,52.6844091796875,0.7309991121292114,-0.7025719881057739,-2.9361302852630615
1718292473674179300,52.73417944335937,0.781841516494751,-1.3977614641189575,-3.5751187801361084
1718292473723949300,52.78394921875,-0.23301434516906738,-0.5333126783370972,-2.2729127407073975
1718292473773719300,52.83371923828125,-0.1772964894771576,-0.445162296295166,-0.832129180431366
1718292473823489300,52.8834892578125,-0.6927550435066223,0.41976213455200195,0.36367514729499817
1718292473873259300,52.93325927734375,-1.0635613203048706,1.127274513244629,2.6651415824890137
1718292473923029500,52.983029541015625,-1.127337098121643,1.694443941116333,3.431225538253784
1718292473972799200,53.03279931640625,-0.7625967264175415,0.3192616105079651,3.458211898803711
1718292474022568200,53.08256811523437,-0.6648877263069153,0.1343168020248413,2.9380605220794678
1718292474072338400,53.13233837890625,-0.6580221056938171,-0.1728024035692215,2.567330837249756
1718292474122108200,53.18210815429688,-0.7969735860824585,0.27660974860191345,1.8052692413330078
1718292474171879200,53.231879150390625,-0.2915423810482025,-0.6259089112281799,0.09090407192707062
1718292474221649200,53.28164916992188,-0.026272617280483246,-0.2549486756324768,-1.245902419090271
1718292474271419100,53.33141918945312,0.15014582872390747,-0.4460272789001465,-1.9017345905303955
1718292474321189000,53.381189208984374,-0.04097859188914299,-1.3345792293548584,-2.258563995361328
1718292474370959000,53.430958984375,0.2904036045074463,-0.3596215546131134,-2.569436550140381
1718292474420729000,53.48072900390625,0.5377646684646606,-0.8683788180351257,-3.416607618331909
1718292474470499000,53.5304990234375,0.7920816540718079,-0.6494784355163574,-2.9406349658966064
1718292474520268000,53.58026806640625,0.4439777135848999,-0.6482272744178772,-2.376835346221924
1718292474570038000,53.6300380859375,0.03934847190976143,-0.20123670995235443,-1.1160227060317993
1718292474619808000,53.67980810546875,-0.05946918576955795,0.5567148923873901,0.33798202872276306
1718292474669578000,53.729577880859374,-0.32328805327415466,1.2929165363311768,2.2511050701141357
1718292474719348000,53.779347900390626,-0.19712212681770325,1.6299086809158325,3.1253323554992676
1718292474769118000,53.82911791992188,-0.25398194789886475,1.0762696266174316,3.5136983394622803
1718292474818888000,53.87888793945312,0.10904153436422348,0.3350831866264343,3.1303954124450684
1718292474868658200,53.928658203125,-0.3727535903453827,0.143064484000206,3.031364679336548
1718292474918428000,53.978427978515626,-0.7656172513961792,0.44954290986061096,2.260197162628174
1718292474968198100,54.0281982421875,-0.40194371342658997,-0.4033823609352112,0.4207022190093994
1718292475017967000,54.077967041015626,0.2274741679430008,-0.05337907001376152,-1.0756670236587524
1718292475067737000,54.12773706054688,0.22768722474575043,-0.24338096380233765,-1.668576955795288
1718292475117507000,54.17750708007812,0.006484530866146088,-1.6590704917907715,-1.9105339050292969
1718292475167277000,54.227277099609374,0.6025974750518799,-0.7601183652877808,-2.7280635833740234
1718292475217046800,54.277046875,0.7198625802993774,-0.6778746247291565,-3.147961139678955
1718292475266816800,54.326816650390626,0.9960646033287048,-0.7192774415016174,-3.3490984439849854
1718292475316586800,54.37658666992188,0.519813597202301,-1.3007270097732544,-2.7650954723358154
1718292475366356700,54.42635668945312,0.2519108057022095,-0.810391366481781,-1.7555876970291138
1718292475416127000,54.476126953125,-0.1387038230895996,0.3114455044269562,0.21566304564476013
1718292475465897000,54.52589697265625,-0.14290815591812134,1.369510293006897,1.8320600986480713
1718292475515667000,54.5756669921875,-0.5937509536743164,1.5059882402420044,3.264559030532837
1718292475565436000,54.625435791015626,-0.6736630797386169,1.322805643081665,3.5026817321777344
1718292475615206000,54.67520581054688,-0.582417368888855,0.36007535457611084,3.640617847442627
1718292475664976000,54.72497583007812,-0.7385608553886414,-0.19956211745738983,2.989748001098633
1718292475714745900,54.774745849609374,-1.0679068565368652,0.17484425008296967,2.6707003116607666
1718292475764515800,54.824515869140626,-0.662970781326294,-0.3503473699092865,0.6606173515319824
1718292475814285800,54.87428588867188,-0.21379324793815613,-0.6100023984909058,-0.9144381880760193
1718292475864055800,54.92405590820312,0.08600412309169769,-0.18076711893081665,-1.6776210069656372
1718292475913825800,54.97382568359375,0.11698786914348602,-1.676749587059021,-2.164449691772461
1718292475963595800,55.023595703125,0.6133001446723938,-0.6595211625099182,-2.8963794708251953
1718292476013364700,55.07336474609375,0.8927672505378723,-0.43671074509620667,-3.0673844814300537
1718292476063135000,55.123135009765626,1.4116871356964111,-0.2602156102657318,-3.3346219062805176
1718292476112904700,55.17290478515625,0.7687014937400818,-0.6419230103492737,-1.9006894826889038
1718292476162675000,55.22267504882812,0.5716118216514587,-0.1339855045080185,-1.1901628971099854
1718292476212444400,55.2724443359375,0.13564811646938324,0.828539252281189,0.31184205412864685
1718292476262214400,55.32221435546875,-0.2574200928211212,1.149821162223816,2.2675278186798096
1718292476311984600,55.371984619140626,-0.40496906638145447,1.7867510318756104,3.6702842712402344
1718292476361754400,55.42175439453125,-0.0942082554101944,1.2135649919509888,3.758031129837036
1718292476411524600,55.47152465820312,0.1691352277994156,-0.41539934277534485,3.5293729305267334
1718292476461294300,55.52129443359375,-0.07445186376571655,0.9833466410636902,3.093925714492798
1718292476511063300,55.57106323242188,0.09801231324672699,1.0543036460876465,1.75893235206604
1718292476560833500,55.62083349609375,0.2418603003025055,-0.15044330060482025,-0.5806815028190613
1718292476610603300,55.670603271484374,0.473370224237442,-0.1842803657054901,-1.1792200803756714
1718292476660373500,55.72037353515625,0.5147805213928223,-0.43564361333847046,-1.8734629154205322
1718292476710143200,55.77014331054688,0.6467145681381226,-1.3883050680160522,-3.1879894733428955
1718292476759913500,55.81991357421875,0.6332507133483887,-1.308430790901184,-2.871570110321045
1718292476809683200,55.86968310546875,1.1305168867111206,-0.9456863403320312,-3.650074005126953
1718292476859453400,55.919453369140626,0.7048865556716919,-1.4307752847671509,-3.220196008682251
1718292476909223400,55.96922338867188,0.5096302032470703,-1.2211503982543945,-2.3923163414001465
1718292476958992400,56.018992431640626,-0.01901337131857872,-0.5974908471107483,-0.43890440464019775
1718292477008762400,56.06876245117188,-0.6240643858909607,0.6714646816253662,1.711785912513733
1718292477058532400,56.11853247070312,-1.0445873737335205,1.524819016456604,3.0736582279205322
1718292477108302300,56.16830224609375,-1.551063895225525,1.3550198078155518,3.5238535404205322
1718292477158072600,56.218072509765626,-1.1262433528900146,-0.003834951901808381,3.5851290225982666
1718292477207842800,56.2678427734375,-0.946441113948822,0.09590522199869156,3.2731404304504395
1718292477257613000,56.317613037109375,-0.8912638425827026,0.6577081084251404,2.092747688293457
1718292477307382800,56.3673828125,-0.2253420352935791,-1.1963697671890259,-0.39159733057022095
1718292477357153000,56.41715307617188,-0.059538163244724274,-0.6268921494483948,-0.950779139995575
1718292477406922000,56.466921875,0.2351512610912323,-0.7629913687705994,-2.138278007507324
1718292477456692000,56.51669189453125,0.5233018398284912,-0.9886090755462646,-3.265740156173706
1718292477506462000,56.5664619140625,0.29799360036849976,-0.3529394268989563,-2.869030714035034
1718292477556232000,56.61623193359375,0.5912502408027649,-0.47918444871902466,-3.7253196239471436
1718292477606002000,56.666001953125,0.45600056648254395,-1.659023642539978,-2.9875102043151855
1718292477655772000,56.71577197265625,0.3822517693042755,-0.40371257066726685,-1.9366544485092163
1718292477705542000,56.7655419921875,-0.3560244143009186,0.2782220244407654,-0.04589878022670746
1718292477755311900,56.81531176757812,-0.45426657795906067,1.3250623941421509,2.260159730911255
1718292477805080800,56.86508081054688,-0.9386119246482849,1.7177921533584595,3.8600997924804688
1718292477854851000,56.91485107421875,-0.5447993874549866,0.8629574179649353,3.6441962718963623
1718292477904620800,56.964620849609375,-0.6453217267990112,0.30043572187423706,3.5470590591430664
1718292477954391000,57.01439111328125,-0.6021950244903564,0.31132885813713074,3.131619930267334
1718292478004160800,57.06416088867188,-0.4089547395706177,1.0068540573120117,1.7504209280014038
1718292478053931000,57.11393090820312,-0.1573435515165329,-0.5502908229827881,-0.3485625088214874
1718292478103701000,57.163700927734375,0.31650444865226746,-0.4673253893852234,-1.217231035232544
1718292478153471000,57.21347094726563,0.6162160634994507,-0.8116593360900879,-2.3729264736175537
1718292478203240400,57.26324047851563,0.5643989443778992,-1.3128420114517212,-2.699922800064087
1718292478253009400,57.313009521484375,0.6821889281272888,-0.39841315150260925,-3.5720865726470947
1718292478302779400,57.362779296875,0.6938671469688416,-0.8857263326644897,-3.4834749698638916
1718292478352549400,57.41254931640625,0.8530930280685425,-0.9061469435691833,-3.0273752212524414
1718292478402319400,57.4623193359375,0.024529844522476196,-0.6833149194717407,-1.3502488136291504
1718292478452089600,57.512089599609375,-0.03780383616685867,0.4121289551258087,0.6780184507369995
1718292478501859300,57.561859375,-0.40353521704673767,0.8021305203437805,1.5429974794387817
1718292478551629600,57.61162963867187,-0.6675535440444946,0.8564662337303162,1.7485252618789673
1718292478601399300,57.6613994140625,-0.5071489810943604,0.27924680709838867,1.4722939729690552
1718292478651168300,57.71116821289063,-0.6037282347679138,0.4992116689682007,1.423580288887024
1718292478700938500,57.7609384765625,-0.39078080654144287,0.5329198241233826,1.2234103679656982
1718292478750708200,57.81070825195312,-0.6892135739326477,0.5178236961364746,1.5448989868164062
1718292478800478500,57.860478515625,-0.5423839092254639,0.3740004897117615,0.8824730515480042
1718292478850248400,57.91024853515625,-0.2504234313964844,-0.02617967315018177,0.6967817544937134
1718292478900018400,57.96001831054687,-0.33577853441238403,0.40596213936805725,0.7910948991775513
1718292478949788400,58.00978833007812,-0.3794836699962616,0.3421117961406708,0.4335346519947052
1718292478999558400,58.059558349609375,0.07466891407966614,0.16308638453483582,0.5227260589599609
1718292479049328400,58.10932836914063,0.3325377404689789,0.25230175256729126,0.4862058460712433
1718292479099097600,58.15909765625,0.2669296860694885,0.42112672328948975,0.393351286649704
1718292479148867300,58.20886743164063,0.287137508392334,-0.2672138512134552,0.1948922574520111
1718292479198638000,58.25863818359375,-0.25119122862815857,0.19275373220443726,0.6554388403892517
1718292479248407800,58.30840771484375,-0.21664415299892426,-0.20509429275989532,0.21651126444339752
1718292479298178000,58.35817797851563,-0.23389531672000885,-0.38881486654281616,0.034151047468185425
1718292479347947800,58.40794775390625,-0.1775798499584198,0.5640226006507874,0.18315331637859344
1718292479397718000,58.457718017578124,0.0011970909545198083,0.03362720087170601,0.2504098415374756
1718292479447487000,58.50748706054687,0.07507690787315369,0.05405418202280998,-0.014201306737959385
1718292479497257000,58.557257080078124,0.39730289578437805,0.25200721621513367,-0.06940304487943649
1718292479547027000,58.60702685546875,0.016829580068588257,-0.30443713068962097,-0.02388402819633484
1718292479596797000,58.656796875,-0.1345950961112976,0.09386231005191803,0.13115881383419037
1718292479646567000,58.70656689453125,-0.23877689242362976,-0.0658290833234787,0.21777068078517914
1718292479696337000,58.7563369140625,-0.12346255034208298,0.4145207405090332,-0.10186325013637543
1718292479746107000,58.80610693359375,0.15303188562393188,-0.032950758934020996,-0.22890456020832062
1718292479795876900,58.855876953125,0.13905242085456848,-0.1355932503938675,-0.2615434527397156
1718292479845645800,58.905645751953124,-0.08117048442363739,-0.005721535068005323,0.23560559749603271
1718292479895416000,58.955416015625,0.006102900020778179,0.05715756118297577,0.10056415945291519
1718292479945185800,59.00518579101563,-0.028743231669068336,0.25764191150665283,0.2817389965057373
1718292479994956000,59.0549560546875,0.0361553393304348,-0.05864546820521355,-0.14069825410842896
1718292480044726000,59.10472607421875,-0.028619393706321716,-0.14566585421562195,-0.23620881140232086
1718292480094496000,59.15449609375,-0.06476221978664398,-0.24303822219371796,0.047138482332229614
1718292480144266000,59.20426586914063,-0.10679382085800171,-0.051317248493433,0.04109390825033188
1718292480194035000,59.254034912109375,-0.012910205870866776,0.30613648891448975,-0.01429371815174818
1718292480243804200,59.30380419921875,-0.04506787657737732,0.41538548469543457,0.1336406171321869
1718292480293574100,59.35357421875,0.02359880320727825,-0.25602245330810547,-0.17606158554553986
1718292480343344000,59.40334423828125,-0.3624703288078308,-0.5101953744888306,-0.139011412858963
1718292480393114000,59.45311401367187,0.047688424587249756,-0.2219284027814865,-0.04633607342839241
1718292480442884000,59.502884033203124,-0.2250184714794159,-0.062921442091465,0.28302210569381714
1718292480492654000,59.552654052734376,0.18887218832969666,0.5412030816078186,-0.09453422576189041
1718292480542424300,59.60242431640625,-0.1453651785850525,0.26562660932540894,0.08793225139379501
1718292480592194000,59.65219409179687,0.10651259124279022,-0.16699431836605072,-0.2084892988204956
1718292480641963000,59.701962890625,-0.18301136791706085,0.1961980015039444,0.1979285329580307
1718292480691733200,59.75173315429687,0.007699464913457632,-0.33465707302093506,-0.1777380406856537
1718292480741503000,59.8015029296875,-0.20864029228687286,0.3028421700000763,0.39773884415626526
1718292480791273200,59.851273193359376,0.05730403587222099,0.07915420830249786,-0.12224148958921432
1718292480841043000,59.90104296875,0.12534967064857483,0.26175305247306824,-0.013293434865772724
1718292480890813200,59.95081323242187,0.3438681662082672,-0.1692630648612976,0.01907089725136757
1718292480940583000,60.0005830078125,0.07790198922157288,0.04200577363371849,-0.09456325322389603
1718292480990352100,60.05035205078125,-0.027031084522604942,-0.12549108266830444,0.0900779590010643
1718292481040122000,60.1001220703125,-0.09272647649049759,0.2930249571800232,0.2714426815509796
1718292481089892000,60.14989208984375,0.011404987424612045,0.12498028576374054,0.259599894285202
1718292481139662000,60.199662109375,0.5538480281829834,-0.15342950820922852,-0.23457708954811096
1718292481189432300,60.24943237304687,-0.03964967280626297,-0.08911469578742981,0.5212775468826294
1718292481239202600,60.29920263671875,0.05356575548648834,-0.11859721690416336,0.6556063294410706
1718292481288972300,60.34897216796875,-0.20581521093845367,-0.057254768908023834,0.7118730545043945
1718292481338742500,60.39874243164063,-0.05775091424584389,-0.3240414559841156,0.2276989370584488
1718292481388511500,60.448511474609376,0.15955743193626404,-0.17197708785533905,-0.5664988160133362
1718292481438281500,60.49828149414063,0.3545365035533905,-0.7612084150314331,-1.4045830965042114
1718292481488051500,60.54805151367187,0.4211006164550781,0.14949841797351837,-1.4298458099365234
1718292481537821400,60.597821533203124,0.26629266142845154,-1.0473719835281372,-2.4635188579559326
1718292481587591400,60.64759130859375,0.6615057587623596,0.007769505959004164,-2.531865358352661
1718292481637361400,60.697361328125,0.765996515750885,-0.9571629762649536,-3.0461838245391846
1718292481687131400,60.74713134765625,1.1518586874008179,-1.0576938390731812,-3.1676084995269775
1718292481736900400,60.796900390625,0.6471569538116455,-0.7499275207519531,-2.3924155235290527
1718292481786670300,60.84667041015625,0.20910821855068207,-0.48145878314971924,-1.2996822595596313
1718292481836440300,60.8964404296875,-0.4811948537826538,0.623506486415863,1.2494449615478516
1718292481886210600,60.94621044921875,-0.5256012082099915,1.6459006071090698,2.426793098449707
1718292481935980300,60.995980224609376,-0.7984532117843628,0.8654796481132507,3.30383563041687
1718292481985750500,61.04575048828125,-0.6595049500465393,-0.1317918449640274,3.348564624786377
1718292482035520300,61.09552026367187,-0.8189612030982971,0.5811622142791748,3.442180633544922
1718292482085289500,61.14528955078125,-0.34139007329940796,0.8567623496055603,2.9309000968933105
1718292482135059500,61.1950595703125,-0.5582707524299622,-0.26178446412086487,1.274584412574768
