time,seconds_elapsed,z,y,x
1718292420959481900,0.01948193359375,0.019042082130908966,-0.10390825569629669,0.09056422859430313
1718292421009252900,0.0692529296875,0.03620429337024689,-0.04354370757937431,0.13743692636489868
1718292421059025000,0.11902490234375,-0.010561450384557247,0.00704015139490366,0.008743146434426308
1718292421108796000,0.1687958984375,-0.018683500587940216,0.05326025187969208,-0.06579890847206116
1718292421158567200,0.218567138671875,0.011560321785509586,0.007463779766112566,0.0184110626578331
1718292421208338200,0.268338134765625,0.023063907399773598,0.00787776242941618,0.034554623067379
1718292421258110200,0.318110107421875,-0.022752951830625534,-0.07243379205465317,0.196878120303154
1718292421307881200,0.367881103515625,0.017802853137254715,0.035976555198431015,-0.12631776928901672
1718292421357652200,0.41765234375,0.002859035972505808,0.07677295058965683,-0.03352368250489235
1718292421407423200,0.46742333984375,-0.0016990441363304853,-0.02941172569990158,0.08469489216804504
1718292421457194000,0.517194091796875,0.03508877754211426,0.019180528819561005,0.029298894107341766
1718292421506966000,0.566966064453125,-0.0007006460800766945,0.017729386687278748,0.021496441215276718
1718292421556737300,0.6167373046875,0.016034206375479698,0.031235503032803535,0.049161411821842194
1718292421606508300,0.66650830078125,0.026671428233385086,0.07098666578531265,-0.05073300004005432
1718292421656279000,0.716279052734375,0.004979753401130438,0.02123892307281494,0.05300675705075264
1718292421706051000,0.766051025390625,0.032277852296829224,0.034058116376399994,0.1849612444639206
1718292421755822000,0.815822021484375,-0.034272391349077225,0.23085561394691467,0.1749596893787384
1718292421805593300,0.86559326171875,-0.05518265441060066,0.4767707586288452,0.3293815553188324
1718292421855364000,0.915364013671875,-0.18195411562919617,0.4914150834083557,0.7071549296379089
1718292421905135000,0.965135009765625,-0.3377075791358948,0.17486043274402618,0.777829110622406
1718292421954907100,1.0149072265625,-0.4772738218307495,-0.561333954334259,1.4618042707443237
1718292422004678100,1.06467822265625,-0.6513590216636658,-0.6793379783630371,1.2786341905593872
1718292422054449200,1.11444921875,-0.09997667372226715,-0.5589627623558044,0.484147310256958
1718292422104220200,1.16422021484375,-0.1768725961446762,-0.555353045463562,0.3262310326099396
1718292422153991200,1.2139912109375,-0.3122860789299011,-0.2691279947757721,0.17169566452503204
1718292422203763200,1.26376318359375,0.1604672074317932,0.7633550763130188,-0.16757716238498688
1718292422253534000,1.313533935546875,0.33866891264915466,0.5321935415267944,-0.043561652302742004
1718292422303305200,1.36330517578125,0.12973137199878693,0.31700870394706726,-0.01474324893206358
1718292422353076200,1.413076171875,0.161676824092865,0.7694473266601562,-0.5318570137023926
1718292422402847200,1.46284716796875,0.11956633627414703,0.5734196901321411,-0.389749675989151
1718292422452618200,1.5126181640625,-0.05157558247447014,0.38196370005607605,-0.3300781548023224
1718292422502390300,1.562390380859375,0.03881243243813515,0.45161664485931396,-0.6230515241622925
1718292422552161300,1.612161376953125,0.24061231315135956,0.3368670344352722,0.04081979766488075
1718292422601932300,1.661932373046875,0.13972771167755127,-0.10718060284852982,0.3279063403606415
1718292422651703000,1.711703125,0.3143966794013977,-0.06609023362398148,0.3901815414428711
1718292422701474300,1.761474365234375,0.01878187246620655,-0.396001935005188,0.18289563059806824
1718292422751246300,1.811246337890625,0.03350294753909111,-0.012262439355254173,0.009173247031867504
1718292422801017300,1.861017333984375,-0.1095898225903511,-0.42767390608787537,-0.06924974173307419
1718292422850788000,1.9107880859375,0.0008165168692357838,-0.11390437185764313,-0.013999469578266144
1718292422900559000,1.96055908203125,-0.16506505012512207,-0.550151526927948,-0.05609912425279617
1718292422950330400,2.010330322265625,-0.0017002936219796538,-0.2645876109600067,-0.05242296680808067
1718292423000101000,2.06010107421875,-0.2464878112077713,-0.821915328502655,-0.3621377646923065
1718292423049873200,2.109873046875,0.0805843323469162,-0.3737438917160034,-0.39235571026802063
1718292423099644200,2.15964404296875,-0.05781547352671623,-0.08490169048309326,-0.47764718532562256
1718292423149414400,2.209414306640625,0.03833426907658577,-0.20817027986049652,-0.2028527557849884
1718292423199185400,2.259185302734375,-0.06663881242275238,-0.8043741583824158,-0.28553104400634766
1718292423248956200,2.3089560546875,-0.07119425386190414,0.5137234330177307,-1.1758956909179688
1718292423298727200,2.35872705078125,-0.32981106638908386,0.9104832410812378,-1.6847524642944336
1718292423348499200,2.408499267578125,-0.6332594752311707,0.10100527107715607,-0.8276017904281616
1718292423398270500,2.4582705078125,-0.9540749788284302,0.39056631922721863,-1.156506896018982
1718292423448041200,2.508041259765625,-0.9557701945304871,-0.1339997947216034,-0.4506116807460785
1718292423497812200,2.557812255859375,-0.8411733508110046,-0.14067113399505615,-0.5209345817565918
1718292423547583200,2.607583251953125,-0.42728978395462036,-0.42840102314949036,-0.27165138721466064
1718292423597355300,2.657355224609375,0.05830410495400429,-0.4482521414756775,0.023996658623218536
1718292423647126300,2.707126220703125,0.2689698040485382,-0.24816147983074188,-0.5852991342544556
1718292423696897300,2.756897216796875,0.14835023880004883,0.026286931708455086,-0.27156659960746765
1718292423746668300,2.806668212890625,1.0150961875915527,0.09983726590871811,-0.6291251182556152
1718292423796439300,2.856439208984375,0.2226696014404297,-0.3000533878803253,-0.7709168195724487
1718292423846210300,2.906210205078125,0.12720227241516113,-0.11148757487535477,-0.594802737236023
1718292423895982300,2.955982421875,0.9729846119880676,-0.6771482825279236,-0.6795167922973633
1718292423945753300,3.00575341796875,1.9223406314849854,-2.343515396118164,0.5083198547363281
1718292423995524400,3.0555244140625,3.589146614074707,-4.967944622039795,0.8146110773086548
1718292424045295400,3.10529541015625,3.796924114227295,-3.9459140300750732,-0.32139942049980164
1718292424095066400,3.15506640625,4.170696258544922,-3.226102352142334,-2.9603734016418457
1718292424144838000,3.204837890625,4.064228534698486,-2.007103681564331,-2.457505702972412
1718292424194610000,3.25460986328125,3.6058828830718994,-0.053041066974401474,-1.8938206434249878
1718292424244381000,3.304380859375,3.009505271911621,-1.8304436206817627,0.4150295555591583
1718292424294152000,3.35415185546875,2.698519468307495,-2.8656375408172607,1.1815028190612793
1718292424343923200,3.403923095703125,-0.8491853475570679,-5.265460014343262,1.125678300857544
1718292424393694000,3.45369384765625,-1.9495347738265991,-2.2673146724700928,-0.8716298937797546
1718292424443466000,3.503466064453125,-5.465301513671875,-1.7764298915863037,-1.991801142692566
1718292424493237000,3.553237060546875,-2.4567220211029053,-1.9189478158950806,0.47992628812789917
1718292424543008000,3.603008056640625,-0.029022790491580963,-0.7120615839958191,1.4115098714828491
1718292424592779000,3.652779052734375,-0.37222743034362793,0.4486033618450165,-0.11281164735555649
1718292424642551000,3.702551025390625,1.1407668590545654,0.7754279971122742,-0.697586178779602
1718292424692322000,3.752322021484375,0.27163881063461304,0.9870098829269409,-0.38361990451812744
1718292424742093000,3.802093017578125,0.5745843052864075,0.7289451360702515,0.7991158962249756
1718292424791863800,3.85186376953125,-0.1373608559370041,0.5406081080436707,0.2986612915992737
1718292424841635000,3.901635009765625,-0.8155478835105896,-1.164445161819458,-0.3434945046901703
1718292424891407000,3.951406982421875,2.163808584213257,-5.19199275970459,0.0356171540915966
1718292424941178000,4.00117822265625,1.2469919919967651,0.2985133230686188,0.19979150593280792
1718292424990948900,4.050948974609375,0.14444461464881897,-0.14373767375946045,-0.037700291723012924
1718292425040720000,4.100719970703125,-0.5961358547210693,-0.32184037566185,0.07160897552967072
1718292425090491100,4.1504912109375,2.8081817626953125,-0.9839992523193359,2.095932722091675
1718292425140262400,4.200262451171875,1.3964776992797852,0.6245543360710144,0.5499284863471985
1718292425190033400,4.250033447265625,0.5049245953559875,0.22931407392024994,0.2822980284690857
1718292425239804400,4.299804443359375,-0.5004673004150391,0.1576424092054367,0.36370396614074707
1718292425289575700,4.34957568359375,-0.10766841471195221,0.2764948308467865,-0.8940656185150146
1718292425339346400,4.399346435546875,1.7591419219970703,-0.6393294930458069,-0.46615925431251526
1718292425389118500,4.449118408203125,0.885556161403656,-0.005487068556249142,0.1837483048439026
1718292425438889500,4.498889404296875,1.7576844692230225,-1.0415841341018677,0.6843305826187134
1718292425488660500,4.548660400390625,-0.1633288711309433,-0.07136566191911697,0.1544511914253235
1718292425538431500,4.598431396484375,2.465106964111328,-1.0936678647994995,0.31892114877700806
1718292425588203500,4.64820361328125,1.2804458141326904,-0.6300288438796997,0.9983577132225037
1718292425637974500,4.697974609375,1.01451575756073,-0.992996335029602,0.15328267216682434
1718292425687745500,4.74774560546875,0.42153269052505493,-0.22912096977233887,0.08087289333343506
1718292425737516300,4.797516357421875,-0.19940069317817688,-0.26865869760513306,-0.505642831325531
1718292425787288300,4.847288330078125,-0.7134567499160767,-0.4217718839645386,0.03241884708404541
1718292425837059600,4.8970595703125,-0.6178306341171265,-0.1958772987127304,0.3079719841480255
1718292425886830600,4.94683056640625,-0.1928408145904541,0.4602449834346771,-0.25116655230522156
1718292425936601300,4.996601318359375,-0.4427941143512726,0.14001552760601044,0.022168567404150963
1718292425986372400,5.046372314453125,2.157637357711792,-0.6863844394683838,0.11945497244596481
1718292426036144400,5.096144287109375,1.9751501083374023,-1.8164905309677124,0.22863608598709106
1718292426085915600,5.14591552734375,0.21179954707622528,0.325092613697052,0.03654485195875168
1718292426135687200,5.195687255859375,-0.5630356669425964,0.5960022211074829,-0.1729832887649536
1718292426185459200,5.245459228515625,-0.7941862940788269,-0.5470354557037354,0.6795193552970886
1718292426235230000,5.29522998046875,0.09089002758264542,1.3346189260482788,-0.5989012718200684
1718292426285001000,5.3450009765625,-0.44376084208488464,-0.5028539299964905,0.06466161459684372
1718292426334772200,5.394772216796875,0.49321693181991577,-0.6006632447242737,0.25452131032943726
1718292426384543000,5.44454296875,1.921282410621643,-1.2371073961257935,0.2762110233306885
1718292426434315000,5.49431494140625,0.4659568965435028,-1.6417372226715088,-0.20712335407733917
1718292426484086000,5.5440859375,-0.738231360912323,1.2174466848373413,0.04428211227059364
1718292426533857000,5.59385693359375,-0.7747443914413452,1.14766263961792,-0.2445816695690155
1718292426583629000,5.643629150390625,-0.6459270715713501,-0.30460765957832336,0.08627084642648697
1718292426633400000,5.693400146484375,-0.23599709570407867,-0.2238454818725586,-0.24519942700862885
1718292426683171000,5.743171142578125,-0.20191319286823273,0.09954661130905151,-0.12698720395565033
1718292426732942000,5.792942138671875,-0.045857615768909454,-0.049557510763406754,0.08317215740680695
1718292426782714000,5.842714111328125,-0.18489962816238403,-0.03043968603014946,0.19623854756355286
1718292426832484900,5.89248486328125,-0.2995348572731018,0.14317955076694489,0.4274429678916931
1718292426882256100,5.942256103515625,-0.13099057972431183,-0.20622478425502777,0.10054579377174377
1718292426932028200,5.992028076171875,0.10120584070682526,-0.16278450191020966,-0.26209092140197754
1718292426981799200,6.041799072265625,0.0032104486599564552,0.3104536533355713,-0.04390818998217583
1718292427031570000,6.09156982421875,-0.002420803764835,-0.25653281807899475,-0.022169239819049835
1718292427081341000,6.1413408203125,-0.031922340393066406,-0.23608657717704773,-0.004168056417256594
1718292427131113200,6.19111328125,0.023397600278258324,-0.17828649282455444,-0.03673875704407692
1718292427180884500,6.240884521484375,0.14658570289611816,-0.1545713245868683,-0.11416268348693848
1718292427230655200,6.2906552734375,0.20101624727249146,-0.27190423011779785,-0.22053776681423187
1718292427280427300,6.34042724609375,0.10170326381921768,-0.2496819645166397,-0.2447068691253662
1718292427330198300,6.3901982421875,0.16254182159900665,-0.4579446613788605,-0.06720821559429169
1718292427379969300,6.43996923828125,0.23843392729759216,-0.2925519645214081,-0.030067237094044685
1718292427429741300,6.4897412109375,0.24013108015060425,-0.18614420294761658,0.0012530020903795958
1718292427479512300,6.53951220703125,0.22410959005355835,-0.4160025417804718,0.17056821286678314
1718292427529283300,6.589283447265625,0.38986659049987793,-0.5305749773979187,0.06451341509819031
1718292427579055400,6.639055419921875,0.5131227374076843,-0.45581576228141785,-0.08736393600702286
1718292427628826400,6.688826416015625,0.5182822346687317,-0.4765733778476715,-0.03513261675834656
1718292427678597000,6.73859716796875,0.44129931926727295,0.01845679245889187,-0.0027458076365292072
1718292427728369200,6.788369140625,0.32827648520469666,0.06392016261816025,0.2578918933868408
1718292427778140400,6.838140380859375,0.2915411591529846,0.5934088826179504,0.38383132219314575
1718292427827911400,6.887911376953125,0.5443007946014404,0.13599061965942383,0.40063759684562683
1718292427877683500,6.937683349609375,0.7752978205680847,1.1818238496780396,0.33293822407722473
1718292427927454200,6.9874541015625,1.0526413917541504,0.7200578451156616,0.4468935430049896
1718292427977225200,7.03722509765625,1.2210177183151245,-0.0047629401087760925,0.30989354848861694
1718292428026997200,7.086997314453125,1.8399850130081177,0.16400131583213806,0.02635139599442482
1718292428076768500,7.1367685546875,2.449007272720337,-0.12309864163398743,-0.5291443467140198
1718292428126540500,7.18654052734375,2.7416296005249023,-0.11047028005123138,-0.5168692469596863
1718292428176310800,7.236310791015625,2.493229389190674,-0.439602792263031,-1.4031301736831665
1718292428226081500,7.28608154296875,2.0959489345550537,-1.0175451040267944,-1.370654582977295
1718292428275853600,7.335853515625,1.9222455024719238,-0.9337282776832581,-1.8602385520935059
1718292428325624800,7.385624755859375,1.4605268239974976,-1.0465887784957886,-2.00197172164917
1718292428375396600,7.435396728515625,1.0195633172988892,-1.5615476369857788,-2.3983542919158936
1718292428425168000,7.48516796875,0.9278025031089783,-1.5721067190170288,-2.627441883087158
1718292428474938600,7.534938720703125,0.3911977708339691,-1.517907738685608,-2.786144256591797
1718292428524710700,7.584710693359375,-0.05711803957819939,-1.4674477577209473,-3.1040918827056885
1718292428574481700,7.634481689453125,-0.5825119018554688,-1.3805665969848633,-3.3316810131073
1718292428624253700,7.684253662109375,-1.0073035955429077,-1.1130722761154175,-3.359314203262329
1718292428674024700,7.734024658203125,-1.450122594833374,-0.7777518630027771,-2.880213499069214
1718292428723795700,7.783795654296875,-1.327141523361206,-0.5627884864807129,-2.3402929306030273
1718292428773567700,7.833567626953125,-1.4995123147964478,-0.2748834192752838,-1.8716827630996704
1718292428823338800,7.8833388671875,-1.6175594329833984,-0.3424590229988098,-1.3760135173797607
1718292428873110800,7.93311083984375,-1.4373953342437744,-0.02653508074581623,-1.1790951490402222
1718292428922881500,7.982881591796875,-1.1269654035568237,0.08542503416538239,-0.5746473073959351
1718292428972652800,8.03265283203125,-0.8822723031044006,0.7306760549545288,-0.382129967212677
1718292429022424600,8.082424560546874,-0.8502023816108704,0.8698941469192505,-0.0740436315536499
1718292429072195800,8.13219580078125,-0.8553165793418884,1.5000410079956055,0.00035181292332708836
1718292429121967900,8.1819677734375,-0.6785439252853394,1.7371647357940674,-0.04883036017417908
1718292429171738000,8.231738037109375,-0.3040950894355774,1.6232788562774658,0.169258713722229
1718292429221510100,8.28151025390625,-0.16297997534275055,1.6820201873779297,0.3644125163555145
1718292429271281200,8.33128125,-0.35789987444877625,1.3693420886993408,0.4767407178878784
1718292429321052200,8.38105224609375,-0.6911707520484924,1.086505651473999,0.6340816020965576
1718292429370824200,8.43082421875,-0.9662183523178101,0.632248044013977,0.39396095275878906
1718292429420595200,8.48059521484375,-1.0626322031021118,0.707658052444458,0.5912098288536072
1718292429470367200,8.5303671875,-0.7905104160308838,0.08508840203285217,0.7324924468994141
1718292429520138200,8.58013818359375,-0.6590849757194519,0.349982887506485,0.7415204644203186
1718292429569910300,8.62991015625,-0.5236003994941711,0.22913683950901031,0.7456868886947632
1718292429619681000,8.679680908203125,-0.4391258955001831,0.04893140494823456,0.5823158621788025
1718292429669453000,8.729453125,-0.38853973150253296,0.40793392062187195,0.5336166024208069
1718292429719224300,8.779224365234375,-0.251674622297287,-0.10474494844675064,0.29612162709236145
1718292429768995300,8.828995361328126,-0.020483778789639473,-0.47017282247543335,0.3344702124595642
1718292429818767000,8.87876708984375,-0.1104019284248352,-0.3197430372238159,0.3715657591819763
1718292429868538000,8.9285380859375,-0.11455406993627548,-0.032246559858322144,0.38761842250823975
1718292429918310100,8.97831005859375,-0.23101450502872467,-0.0133820790797472,0.32607465982437134
1718292429968081200,9.0280810546875,-0.21733103692531586,0.008468112908303738,0.5257462859153748
1718292430017853200,9.077853271484376,-0.1857643723487854,-0.08154814690351486,0.41274866461753845
1718292430067624200,9.127624267578126,-0.16291406750679016,-0.08747316151857376,0.28427326679229736
1718292430117396200,9.177396240234375,-0.057957034558057785,-0.12333960086107254,0.1444186568260193
1718292430167168300,9.227168212890625,0.03815077245235443,-0.029828980565071106,0.021650517359375954
1718292430216939300,9.276939208984375,0.033472418785095215,-0.014656912535429,0.0035126488655805588
1718292430266711000,9.3267109375,-0.015041117556393147,-0.18057942390441895,0.12267550826072693
1718292430316482000,9.37648193359375,0.013336502946913242,0.003894893452525139,0.14579004049301147
1718292430366254000,9.426254150390625,-0.03013882413506508,-0.06458887457847595,0.14439290761947632
1718292430416025000,9.476025146484375,-0.03968764841556549,-0.1111743375658989,0.11832188814878464
1718292430465797000,9.525797119140625,-0.050228193402290344,-0.1839521825313568,0.046576377004384995
1718292430515568000,9.575568115234375,0.01910747028887272,-0.1808386743068695,-0.0005513611249625683
1718292430565340200,9.625340087890624,0.01173704955726862,-0.07383763790130615,0.006823346950113773
1718292430615111200,9.675111083984374,0.00840443093329668,0.05190177261829376,0.0567610040307045
1718292430664883200,9.72488330078125,0.016227835789322853,0.03251762315630913,0.07542859762907028
1718292430714654200,9.774654296875,-0.014173561707139015,-0.04549451917409897,0.13127291202545166
1718292430764426000,9.824426025390625,-0.014949217438697815,-0.06357021629810333,0.14999167621135712
1718292430814197000,9.874197021484376,-0.0000683960533933714,-0.058527227491140366,0.2239711582660675
1718292430863968300,9.92396826171875,0.03437332436442375,-0.034449074417352676,0.15482042729854584
1718292430913740000,9.973739990234375,0.04728705435991287,0.009143264032900333,0.16256633400917053
1718292430963511000,10.023510986328125,0.1155489906668663,0.11019650101661682,0.17886027693748474
1718292431013283000,10.073282958984375,0.14920204877853394,0.07746203243732452,0.16868500411510468
1718292431063054000,10.12305419921875,0.11975841969251633,0.02874593436717987,0.03936485946178436
1718292431112826000,10.172826171875,0.0788913145661354,-0.17453283071517944,0.210092231631279
1718292431162596900,10.222596923828124,0.12253305315971375,-0.2915976941585541,0.20158232748508453
1718292431212369000,10.272368896484375,0.17050917446613312,-0.28588053584098816,0.23292644321918488
1718292431262140200,10.32214013671875,0.16964992880821228,-0.4183615446090698,0.18850287795066833
1718292431311912000,10.371911865234376,0.15815456211566925,-0.417512446641922,0.23362651467323303
1718292431361683000,10.421682861328126,0.08131164312362671,-0.33369868993759155,0.08714009076356888
1718292431411455000,10.471455078125,0.25247254967689514,-0.38186103105545044,-0.10202892869710922
1718292431461226000,10.52122607421875,0.3690330982208252,-0.33083224296569824,-0.3676058053970337
1718292431510998000,10.570998046875,0.293512761592865,-0.9717549085617065,-0.617598831653595
1718292431560769000,10.62076904296875,0.0034166781697422266,-0.6332612633705139,-0.4574120044708252
1718292431610540000,10.6705400390625,0.07688445597887039,-0.47397419810295105,-0.10319290310144424
1718292431660312000,10.72031201171875,-0.006888832896947861,-0.5525296330451965,-0.3125150501728058
1718292431710083000,10.7700830078125,0.15605196356773376,-0.5364308953285217,-0.21811260282993317
1718292431759855000,10.819855224609375,0.1331528276205063,-0.5595558881759644,-0.352631151676178
1718292431809625900,10.8696259765625,0.1235065758228302,-0.42662313580513,-0.38943082094192505
1718292431859398000,10.91939794921875,0.11236385256052017,-0.3257374167442322,-0.38097578287124634
1718292431909169000,10.9691689453125,0.0013292720541357994,-0.34321025013923645,-0.29706692695617676
1718292431958941000,11.01894091796875,-0.03977303206920624,-0.30981025099754333,-0.2837993800640106
1718292432008712000,11.0687119140625,-0.07977443188428879,-0.09255367517471313,-0.2574560344219208
1718292432058484000,11.11848388671875,-0.08546994626522064,0.045843712985515594,-0.26143860816955566
1718292432108255000,11.1682548828125,-0.0701429471373558,0.08129753917455673,-0.30103904008865356
1718292432158026000,11.21802587890625,-0.09743698686361313,-0.019965901970863342,-0.2850821614265442
1718292432207798000,11.267798095703125,-0.0949232205748558,-0.25879737734794617,-0.36746764183044434
1718292432257568800,11.31756884765625,-0.08442170917987823,-0.3606712520122528,-0.22496096789836884
1718292432307340800,11.3673408203125,-0.13365721702575684,-0.327193021774292,-0.22296828031539917
1718292432357111800,11.41711181640625,-0.15765784680843353,-0.37387093901634216,-0.07422631978988647
1718292432406883800,11.4668837890625,-0.1237960085272789,-0.2746490240097046,-0.013367142528295517
1718292432456655000,11.516655029296874,-0.13283227384090424,-0.1896580308675766,-0.0014303261414170265
1718292432506427100,11.56642724609375,-0.09290184825658798,-0.12185437977313995,-0.019711939617991447
1718292432556198000,11.616197998046875,-0.2597270607948303,-0.17489765584468842,0.07018019258975983
1718292432605969000,11.665968994140625,-0.26911962032318115,-0.2566513419151306,-0.0034015593118965626
1718292432655741000,11.715740966796876,-0.33643287420272827,-0.22456957399845123,0.16925694048404694
1718292432705512000,11.765511962890624,-0.2628333270549774,-0.061809856444597244,0.16557861864566803
1718292432755283700,11.81528369140625,-0.1737332046031952,0.056344110518693924,0.307717889547348
1718292432805055000,11.865054931640625,0.18899302184581757,0.4469599425792694,0.4673021137714386
1718292432854827000,11.914826904296875,0.10014869272708893,-0.16274243593215942,0.7670358419418335
1718292432904598000,11.964597900390626,0.06531845778226852,0.1842808723449707,0.6195286512374878
1718292432954370000,12.0143701171875,-0.26595818996429443,-0.19544680416584015,0.6449247598648071
1718292433004140800,12.064140869140624,-0.18825677037239075,-0.16104604303836823,0.663867175579071
1718292433053911800,12.113911865234375,-0.12834443151950836,-0.11793451756238937,0.6112127900123596
1718292433103683800,12.163683837890625,-0.033613551408052444,0.214911550283432,0.48814263939857483
1718292433153454000,12.2134541015625,0.06409487873315811,0.20625942945480347,0.39476028084754944
1718292433203226000,12.26322607421875,0.10696884244680405,0.0671183168888092,0.2287295162677765
1718292433252997000,12.3129970703125,0.013238232582807541,-0.14825095236301422,0.22354058921337128
1718292433302769000,12.362768798828125,0.07182271778583527,0.0641648918390274,0.3495801091194153
1718292433352540000,12.412539794921875,0.09315519034862518,0.00020086509175598621,0.23859316110610962
1718292433402311200,12.462311279296875,0.14404438436031342,0.11002732813358307,0.1434498280286789
1718292433452083200,12.512083251953126,0.13542988896369934,0.04751259461045265,0.04373089596629143
1718292433501854000,12.56185400390625,0.16972656548023224,0.01884545013308525,0.0005192651879042387
1718292433551626000,12.6116259765625,0.1990424394607544,0.0005429990123957396,-0.3229306936264038
1718292433601397000,12.66139697265625,0.35772398114204407,-0.32746222615242004,-0.651935875415802
1718292433651169000,12.7111689453125,0.4900192320346832,-0.5954210758209229,-0.9828126430511475
1718292433700940000,12.76093994140625,0.1254597157239914,-0.9899771213531494,-1.3482433557510376
1718292433750711000,12.8107109375,-0.21168622374534607,-0.7484188079833984,-0.7310622334480286
1718292433800483000,12.860483154296874,-0.1280524879693985,-0.40325137972831726,-0.6205112338066101
1718292433850254000,12.910254150390625,0.12067533284425735,-0.06576170027256012,-0.31287622451782227
1718292433900026000,12.960026123046875,-0.040723517537117004,-0.13514897227287292,-0.16901402175426483
1718292433949797000,13.009797119140625,-0.2564941942691803,-0.14179816842079163,-0.13923470675945282
1718292433999568000,13.05956787109375,-0.2755882143974304,-0.2683684825897217,-0.002991108223795891
1718292434049340000,13.10933984375,-0.15727628767490387,-0.467334508895874,0.04759691655635834
1718292434099111200,13.159111083984374,-0.16966108977794647,-0.4771578907966614,-0.05029970780014992
1718292434148883500,13.208883544921875,-0.1281903237104416,-0.34854769706726074,-0.23279304802417755
1718292434198654500,13.258654541015625,-0.1334703266620636,-0.5109347701072693,-0.3518231511116028
1718292434248425200,13.30842529296875,-0.12735475599765778,-0.5538589954376221,-0.22405950725078583
1718292434298197200,13.358197265625,-0.13802127540111542,-0.5820446014404297,-0.21952417492866516
1718292434347968300,13.40796826171875,-0.2032242864370346,-0.220468670129776,-0.020842483267188072
1718292434397740300,13.457740234375,-0.17218606173992157,-0.1857713758945465,0.02488432079553604
1718292434447511600,13.507511474609375,-0.15655504167079926,-0.07131459563970566,0.14489063620567322
1718292434497282300,13.5572822265625,-0.3133000135421753,0.0435420498251915,0.16513638198375702
1718292434547054300,13.607054443359376,-0.27298688888549805,0.16740788519382477,0.3028004765510559
1718292434596825300,13.656825439453126,-0.2638317942619324,0.5458152294158936,0.47483962774276733
1718292434646596400,13.706596435546874,-0.2594904601573944,0.32198983430862427,0.33641287684440613
1718292434696368400,13.756368408203125,0.06587833911180496,0.8432549834251404,0.40461254119873047
1718292434746139400,13.806139404296875,-0.1113046184182167,0.19511280953884125,0.31016066670417786
1718292434795911400,13.855911376953125,-0.19674727320671082,0.36655956506729126,0.22120697796344757
1718292434845682400,13.905682373046876,0.038603611290454865,0.06339863687753677,0.15608395636081696
1718292434895453400,13.955453369140624,0.06369403749704361,-0.09951469302177429,0.034807391464710236
1718292434945225200,14.00522509765625,0.0957702100276947,0.13741742074489594,-0.01258693914860487
1718292434994996200,14.054996337890625,0.16854910552501678,0.5573551058769226,-0.21552790701389313
1718292435044767500,14.104767578125,0.08561711758375168,0.4307123124599457,-0.222530335187912
1718292435094539500,14.15453955078125,-0.038260746747255325,0.2766109108924866,-0.255120187997818
1718292435144310300,14.204310302734376,-0.16330455243587494,-0.01597997546195984,-0.0632464811205864
1718292435194082300,14.254082275390624,-0.04395440220832825,-0.07944190502166748,0.022089816629886627
1718292435243853300,14.303853271484375,-0.05766281858086586,-0.1069764569401741,0.027060680091381073
1718292435293624300,14.353624267578125,-0.018526209518313408,-0.010194281116127968,0.061228539794683456
1718292435343396400,14.403396240234375,0.05269112065434456,0.013706812635064125,0.016983643174171448
1718292435393167400,14.45316748046875,0.007911747321486473,-0.06692208349704742,0.2311369925737381
1718292435442938400,14.5029384765625,0.0328393429517746,0.026323189958930016,0.0118806017562747
1718292435492710400,14.55271044921875,0.042531244456768036,0.32805851101875305,-0.15033987164497375
1718292435542481400,14.6024814453125,0.05979897454380989,0.062076762318611145,0.11155015230178833
1718292435592252200,14.652252197265625,0.01025315746665001,0.13930396735668182,0.13634321093559265
1718292435642024200,14.702024169921875,0.010074623860418797,-0.0000370880588889122,0.05895345285534859
1718292435691795500,14.75179541015625,-0.02668062411248684,-0.00120867183431983,0.04235067218542099
1718292435741566500,14.80156640625,-0.011796033941209316,-0.0724201574921608,0.17313846945762634
1718292435791338200,14.851338134765625,-0.0771222859621048,-0.20102283358573914,0.18741074204444885
1718292435841109200,14.901109130859375,-0.07438314706087112,-0.25471094250679016,0.40012162923812866
1718292435890880300,14.95088037109375,-0.05941355973482132,-0.19281701743602753,0.3463965356349945
1718292435940652300,15.00065234375,0.025004632771015167,-0.03389666602015495,0.2335563451051712
1718292435990423300,15.05042333984375,0.06418192386627197,0.15419933199882507,0.09072455763816833
1718292436040194300,15.1001943359375,0.06930728256702423,0.02800218015909195,-0.16868527233600616
1718292436089966300,15.14996630859375,0.12261823564767838,0.04008081555366516,-0.29618239402770996
1718292436139737600,15.199737548828125,-0.019939221441745758,-0.13021405041217804,-0.21216905117034912
1718292436189508400,15.24950830078125,-0.13712237775325775,-0.0712699294090271,0.0068301609717309475
1718292436239280400,15.2992802734375,0.033830106258392334,0.08790837228298187,-0.31740236282348633
1718292436289051600,15.3490517578125,0.15307313203811646,-0.0884954184293747,-0.4391891658306122
1718292436338822700,15.39882275390625,0.07963454723358154,-0.15805412828922272,-0.17446812987327576
1718292436388594700,15.4485947265625,-0.06300017982721329,0.0741153135895729,-0.02101729065179825
1718292436438365400,15.498365478515625,-0.08289290964603424,0.17503850162029266,0.11684588342905045
1718292436488136400,15.548136474609375,-0.06150171905755997,0.15066340565681458,0.1487361639738083
1718292436537907700,15.59790771484375,0.009616109542548656,0.11201450973749161,0.09453146904706955
1718292436587679700,15.6476796875,0.05646021291613579,0.08265773952007294,0.05385196581482887
1718292436637450500,15.697450439453124,0.01727892830967903,0.013273477554321289,0.05946456640958786
1718292436687221500,15.747221435546875,-0.1511012762784958,-0.011883486062288284,0.013896750286221504
1718292436736993500,15.79699365234375,0.07105094939470291,0.22140592336654663,0.010832643136382103
1718292436786764500,15.8467646484375,0.0737888514995575,0.0471244752407074,0.14031864702701569
1718292436836535600,15.89653564453125,-0.08950793743133545,0.2326090931892395,0.11445793509483337
1718292436886306600,15.946306640625,-0.047010619193315506,-0.13270458579063416,0.11942734569311142
1718292436936078600,15.99607861328125,0.06740668416023254,-0.09688068926334381,0.21691539883613586
1718292436985849600,16.045849609375,0.03765665739774704,-0.12168483436107635,0.20338696241378784
1718292437035620400,16.095620361328123,-0.01660727895796299,0.047067657113075256,0.11336810886859894
1718292437085392400,16.145392333984375,-0.018401021137833595,0.09776817262172699,0.1405792385339737
1718292437135163600,16.19516357421875,0.024332944303750992,0.07257454842329025,0.21522948145866394
1718292437184935400,16.244935302734376,0.006645478308200836,-0.04134978726506233,0.15152236819267273
1718292437234706200,16.2947060546875,0.03306379169225693,-0.027059216052293777,0.061037857085466385
1718292437284478200,16.344478271484373,0.008605625480413437,0.056846681982278824,0.10093935579061508
1718292437334249200,16.394249267578125,-0.05686265602707863,0.07147982716560364,0.08532123267650604
1718292437384020200,16.444020263671874,-0.04995613917708397,0.029232794418931007,0.04545377567410469
1718292437433791200,16.493791259765626,-0.015327075496315956,-0.0028301130514591932,-0.03158413618803024
1718292437483563300,16.543563232421874,0.0037950552068650723,0.019826682284474373,-0.07224929332733154
1718292437533334300,16.593334228515626,0.01561211608350277,0.027433887124061584,-0.023348890244960785
1718292437583105300,16.643105224609375,0.010538773611187935,-0.0025906257797032595,0.03489972651004791
1718292437632876000,16.6928759765625,-0.05656755715608597,0.05666256695985794,0.0592968687415123
1718292437682648000,16.74264794921875,-0.08709478378295898,0.059837449342012405,0.02136201411485672
1718292437732419300,16.79241943359375,0.006899974308907986,0.0803854912519455,-0.018334217369556427
1718292437782190300,16.8421904296875,0.05668295547366142,0.11921568214893341,-0.036239221692085266
1718292437831961000,16.891961181640625,-0.015200124122202396,0.10222716629505157,-0.10349805653095245
1718292437881733000,16.941733154296877,0.02524142898619175,0.030852053314447403,-0.07800137996673584
1718292437931504000,16.991504150390625,0.043147459626197815,0.004027885384857655,-0.020610075443983078
1718292437981275400,17.041275390625,0.022647492587566376,0.00839727558195591,-0.08064218610525131
1718292438031046100,17.091046142578126,-0.003990326542407274,0.013664059340953827,-0.10074449330568314
1718292438080818200,17.140818115234374,-0.02836199849843979,0.051076896488666534,0.01675431989133358
1718292438130589200,17.190589111328126,0.029147222638130188,0.06412318348884583,-0.10711993277072906
1718292438180359700,17.240359619140627,0.058230090886354446,0.04077433422207832,-0.09110770374536514
1718292438230130700,17.290130615234375,0.03646032512187958,0.09086914360523224,-0.09228707104921341
1718292438279901400,17.3399013671875,0.03332461789250374,0.10480047762393951,-0.0648193210363388
1718292438329673500,17.389673583984376,0.04815016686916351,0.06666135042905807,-0.03273222595453262
1718292438379444500,17.439444580078124,0.03429529815912247,0.07887211441993713,-0.09476254135370255
1718292438429215700,17.4892158203125,0.002953867893666029,0.02541443146765232,-0.13273188471794128
1718292438478986500,17.538986572265625,0.02711271122097969,-0.0016177382785826921,-0.012198235839605331
1718292438528757500,17.588757568359377,0.03381730243563652,-0.03518645465373993,-0.030133776366710663
1718292438578529500,17.638529541015625,-0.024198923259973526,-0.10377925634384155,0.006664552725851536
1718292438628300500,17.688300537109374,0.009018560871481895,-0.09642568975687027,0.0016353088431060314
1718292438678071600,17.738071533203126,0.028309842571616173,-0.11402676999568939,0.03494378924369812
1718292438727842600,17.787842529296874,0.009586449712514877,-0.043546825647354126,-0.023472275584936142
1718292438777614600,17.837614501953126,-0.013867007568478584,-0.04341857507824898,0.002396942349150777
1718292438827385600,17.887385498046875,-0.0058576734736561775,-0.004349979571998119,0.036052167415618896
1718292438877156600,17.937156494140623,0.020264986902475357,-0.001031195279210806,-0.0035081435926258564
1718292438926927600,17.986927734375,0.0020399531349539757,0.002055208431556821,-0.02214699424803257
1718292438976698600,18.03669873046875,-0.001650921767577529,0.018730591982603073,0.0023801857605576515
1718292439026469400,18.086469482421876,0.004748715553432703,0.03533712774515152,0.03828919306397438
1718292439076241400,18.136241455078125,0.016130266711115837,0.01951581984758377,0.02535928040742874
1718292439126012700,18.1860126953125,0.017752092331647873,0.03827691078186035,-0.0228147991001606
1718292439175783400,18.235783447265625,0.008054948411881924,0.035764388740062714,-0.006909303832799196
1718292439225554400,18.285554443359374,0.003193367039784789,0.027011971920728683,-0.002602777909487486
1718292439275325400,18.335325439453126,-0.0005775220924988389,0.016296718269586563,-0.0025760498829185963
1718292439325096400,18.385096435546874,-0.002226513111963868,-0.011400841176509857,-0.00961207877844572
1718292439374868500,18.434868408203126,-0.005854576826095581,0.001341755734756589,-0.004704905673861504
1718292439424639500,18.484639404296875,-0.001649958547204733,-0.016877146437764168,-0.012630090117454529
1718292439474410500,18.534410400390627,0.002558901207521558,-0.03573552146553993,0.03298932686448097
1718292439524181200,18.58418115234375,0.011097978800535202,-0.007274748757481575,0.011250159703195095
1718292439573952500,18.633952392578124,0.005510196555405855,-0.011783100664615631,-0.016339989379048347
1718292439623723500,18.6837236328125,0.004201558884233236,0.027187297120690346,-0.029936525970697403
1718292439673495600,18.73349560546875,-0.010146426036953926,0.03086363896727562,-0.05125093832612038
1718292439723266300,18.783266357421876,-0.01435049157589674,0.00981081835925579,-0.012258527800440788
1718292439773037300,18.833037353515625,0.004939441103488207,-0.01701551117002964,-0.04225651174783707
1718292439822808600,18.88280859375,-0.009257419966161251,-0.04856827110052109,-0.019450312480330467
1718292439872579600,18.93257958984375,-0.009286222979426384,-0.06746535003185272,-0.0017228731885552406
1718292439922350300,18.982350341796874,0.013837103731930256,-0.047838855534791946,-0.0031134760938584805
1718292439972121600,19.03212158203125,0.018714334815740585,-0.014212082140147686,0.010932518169283867
1718292440021893400,19.081893310546874,0.015712274238467216,-0.0026190828066319227,-0.027232693508267403
1718292440071664600,19.13166455078125,0.016037467867136,0.01809847727417946,-0.04943036288022995
1718292440121435400,19.181435302734375,0.018261102959513664,0.016520895063877106,-0.03274761512875557
1718292440171206700,19.23120654296875,0.01640842668712139,0.016018232330679893,-0.03914402425289154
1718292440220977700,19.280977783203124,0.003842815523967147,0.015552109107375145,-0.008086961694061756
1718292440270749000,19.3307490234375,0.0007636855007149279,0.009873006492853165,0.0011118620168417692
1718292440320520000,19.38052001953125,0.01182797271758318,-0.00791121181100607,0.020279914140701294
1718292440370290700,19.430290771484376,0.004370981361716986,-0.0206848606467247,-0.005917275790125132
1718292440420062700,19.480062744140625,0.004134797025471926,-0.012245982885360718,0.017239216715097427
1718292440469833700,19.529833740234373,0.014615789987146854,0.016042089089751244,-0.014747271314263344
1718292440519605000,19.57960498046875,-0.0027287837583571672,0.005296364426612854,-0.001330789178609848
1718292440569375700,19.629375732421874,-0.005437748972326517,0.015211007557809353,-0.01692987233400345
1718292440619146800,19.679146728515626,-0.010226236656308174,-0.0005245001520961523,-0.013711309991776943
1718292440668918000,19.72891796875,-0.00731365941464901,-0.008166168816387653,0.015032438561320305
1718292440718688800,19.778688720703126,0.0011996265966445208,-0.005571797490119934,0.006986071355640888
1718292440768459800,19.828459716796875,-0.0018985718488693237,-0.012722143903374672,0.011447341181337833
1718292440818230800,19.878230712890623,0.0010263780131936073,0.000025076325982809067,-0.005453078541904688
1718292440868001800,19.928001708984375,-0.001172842108644545,-0.0012758090160787106,-0.009150953032076359
1718292440917773800,19.97777392578125,0.00042786228004842997,0.012727631255984306,0.012954331934452057
1718292440967544800,20.027544921875,-0.003170005977153778,0.0028410223312675953,-0.010611248202621937
1718292441017315800,20.07731591796875,-0.006851702928543091,-0.0025766713079065084,0.008593548089265823
1718292441067086600,20.127086669921876,0.004462061449885368,0.003438318846747279,0.013812752440571785
1718292441116857900,20.17685791015625,-0.005770563147962093,0.0030272279400378466,-0.00838153250515461
1718292441166628600,20.226628662109373,-0.011708223260939121,0.005847755819559097,0.008600853383541107
1718292441216399600,20.276399658203125,-0.008543651551008224,-0.019275551661849022,-0.00433272123336792
1718292441266170600,20.326170654296874,-0.009105001576244831,-0.011657007038593292,0.02402888983488083
1718292441315941600,20.375941650390626,-0.011032208800315857,0.005654046777635813,0.0029895934276282787
1718292441365712600,20.425712646484374,-0.012991046532988548,-0.01199059933423996,0.007849352434277534
1718292441415483600,20.475483642578126,-0.012401381507515907,0.0045357272028923035,0.022020190954208374
1718292441465254700,20.525254638671875,-0.012989550828933716,-0.0026516374200582504,0.005690161604434252
1718292441515025700,20.575025634765623,-0.01595483347773552,-0.0030862849671393633,0.005524425767362118
1718292441564796700,20.624796630859375,-0.02036247029900551,-0.013942583464086056,0.005745640955865383
1718292441614568700,20.674568603515624,-0.025395598262548447,0.022125886753201485,0.004887721035629511
1718292441664339700,20.724339599609376,-0.026552846655249596,-0.008986658416688442,-0.00008229026570916176
1718292441714110700,20.77411083984375,-0.020582200959324837,-0.03722450137138367,0.0252657700330019
1718292441763881700,20.8238818359375,-0.028586208820343018,-0.061053160578012466,0.05620658025145531
1718292441813652700,20.87365283203125,-0.021280871704220772,-0.074539914727211,0.0767073705792427
1718292441863423500,20.923423583984373,0.011147190816700459,-0.12019136548042297,0.05025431513786316
1718292441913194800,20.97319482421875,-0.015868816524744034,-0.24707575142383575,0.14066128432750702
1718292441962965800,21.0229658203125,-0.07977250963449478,-0.4365355968475342,0.3191468119621277
1718292442012736800,21.07273681640625,-0.05974550172686577,-0.41111379861831665,0.23069080710411072
1718292442062507500,21.122507568359374,-0.005889151245355606,-0.1825535148382187,0.1088673323392868
1718292442112278800,21.17227880859375,0.0004777897265739739,-0.05553165450692177,0.09902163594961166
1718292442162049500,21.222049560546875,-0.016711357980966568,-0.04436350241303444,0.1364191770553589
1718292442211820500,21.271820556640623,0.000287128787022084,-0.09655734896659851,0.14695510268211365
1718292442261591600,21.321591552734375,0.010970338247716427,-0.1244218721985817,0.11907846480607986
1718292442311362600,21.371362548828124,0.0031431044917553663,-0.07851739227771759,0.09078924357891083
1718292442361133600,21.421133544921876,-0.031441815197467804,-0.06333743035793304,0.1617877036333084
1718292442410904600,21.470904541015624,0.01891958713531494,-0.10321541130542755,0.1718372404575348
1718292442460675600,21.520675537109376,0.07945016771554947,-0.017807092517614365,0.16527481377124786
1718292442510446600,21.570446533203125,0.08993104100227356,-0.005175162572413683,0.12195911258459091
1718292442560217600,21.620217529296873,0.05459611117839813,-0.11319132149219513,0.14072811603546143
1718292442609988400,21.66998828125,0.04384355619549751,-0.10307085514068604,0.10844803601503372
1718292442659759600,21.719759521484374,0.0446915477514267,-0.036159925162792206,0.1528734564781189
1718292442709530600,21.769530517578126,0.02615043893456459,0.0705174133181572,0.05685562267899513
1718292442759301600,21.819301513671874,0.07670190930366516,0.09538891911506653,0.13410797715187073
1718292442809072400,21.869072265625,0.05160852149128914,0.07243406772613525,0.11654392629861832
1718292442858843600,21.91884375,0.058632075786590576,0.03150181472301483,0.03745577111840248
1718292442908614700,21.96861474609375,0.10183466970920563,0.017674947157502174,0.1011391431093216
1718292442958385400,22.018385498046875,0.09571947902441025,-0.1466832011938095,0.2001563012599945
1718292443008156400,22.068156494140624,0.07761893421411514,-0.08678541332483292,0.19034039974212646
1718292443057927700,22.117927734375,0.13136127591133118,-0.12150529026985168,0.1649501472711563
1718292443107698400,22.167698486328124,0.15303145349025726,-0.21274888515472412,0.156633660197258
1718292443157470200,22.21747021484375,0.1478135734796524,-0.17551858723163605,0.17622940242290497
1718292443207241200,22.2672412109375,0.118924580514431,-0.10096137225627899,-0.009399755857884884
1718292443257012200,22.31701220703125,0.1743788868188858,-0.15852147340774536,-0.38878148794174194
1718292443306783200,22.366783203125,0.1883736401796341,-0.3024856150150299,-0.7167850136756897
1718292443356554200,22.41655419921875,0.08871034532785416,-0.49175238609313965,-0.9641628861427307
1718292443406325200,22.4663251953125,0.00612027570605278,-0.9107118248939514,-0.8921688795089722
1718292443456096300,22.51609619140625,-0.12014485895633698,-0.8143698573112488,-0.6071326732635498
1718292443505867300,22.5658671875,-0.14847832918167114,-0.868931770324707,-0.46063515543937683
1718292443555638300,22.61563818359375,0.06701767444610596,-0.7573886513710022,-0.582679033279419
1718292443605409000,22.665408935546875,0.199400395154953,-0.9252569079399109,-1.0895872116088867
1718292443655180300,22.71518017578125,0.09119556844234467,-1.0517057180404663,-1.1075745820999146
1718292443704951300,22.764951416015624,0.04249528422951698,-1.2997342348098755,-1.3343799114227295
1718292443754722000,22.81472216796875,0.0740341991186142,-1.9688143730163574,-1.3303608894348145
1718292443804492300,22.8644921875,0.26532822847366333,-1.3787733316421509,-1.4792125225067139
1718292443854263300,22.91426318359375,0.6442450881004333,-1.4853565692901611,-1.6101396083831787
1718292443904034000,22.964033935546876,0.7645254135131836,-0.8896144032478333,-1.655009388923645
1718292443953805300,23.013805419921876,1.1260318756103516,-0.458943247795105,-1.7545794248580933
1718292444003576300,23.063576416015625,1.23918879032135,-0.37140199542045593,-1.5191023349761963
1718292444053347000,23.11334716796875,1.1882535219192505,-0.5357582569122314,-1.3502272367477417
1718292444103118000,23.1631181640625,1.1340478658676147,-0.46941542625427246,-1.374219298362732
1718292444152888800,23.212888916015626,1.0594252347946167,-0.39820489287376404,-1.495195746421814
1718292444202659600,23.26265966796875,0.8696041703224182,-0.6034639477729797,-1.601595163345337
1718292444252430600,23.3124306640625,0.27341580390930176,-0.6213982105255127,-1.817966103553772
1718292444302201900,23.362201904296874,-0.1266665905714035,-0.44602468609809875,-1.848001480102539
1718292444351972600,23.41197265625,-0.5431141257286072,-0.17747676372528076,-1.6005772352218628
1718292444401743600,23.46174365234375,-0.7720755338668823,0.02982604317367077,-1.0819077491760254
1718292444451514600,23.5115146484375,-0.9248535633087158,0.24951618909835815,-0.5408946871757507
1718292444501284600,23.56128466796875,-1.0588229894638062,0.35648712515830994,-0.2782054543495178
1718292444551055600,23.6110556640625,-1.0913444757461548,0.3565852642059326,-0.18974696099758148
1718292444600826600,23.66082666015625,-0.7331387996673584,0.42196694016456604,-0.688162624835968
1718292444650597600,23.71059765625,-0.6562397480010986,-0.07382599264383316,-1.2251695394515991
1718292444700368600,23.76036865234375,-0.5224351286888123,-0.14940409362316132,-0.9395449161529541
1718292444750139600,23.8101396484375,-0.4054282009601593,-0.09279822558164597,-0.7460349202156067
1718292444799910700,23.85991064453125,-0.2370341718196869,0.17784887552261353,-0.6319104433059692
1718292444849681700,23.909681640625,-0.23306898772716522,0.09070678800344467,-0.2641979157924652
1718292444899452700,23.95945263671875,-0.1754245012998581,0.3482951521873474,-0.060253340750932693
1718292444949223700,24.0092236328125,-0.44536906480789185,0.2532276511192322,0.16171316802501678
1718292444998993700,24.05899365234375,-0.5837504267692566,0.4161061942577362,0.3729742765426636
1718292445048764700,24.1087646484375,-0.5519697666168213,0.5155004262924194,0.7154373526573181
1718292445098535700,24.15853564453125,-0.5008103847503662,0.6133590936660767,0.9543834924697876
1718292445148306700,24.208306640625,-0.2086167186498642,0.8022593259811401,1.0693176984786987
1718292445198077700,24.25807763671875,-0.0879257321357727,0.8156869411468506,1.3504080772399902
1718292445247848700,24.3078486328125,-0.09304489940404892,0.9254996180534363,1.5465127229690552
1718292445297619700,24.35761962890625,-0.14433537423610687,0.896433413028717,1.6348295211791992
1718292445347390700,24.407390625,0.18181146681308746,1.1824228763580322,2.0008537769317627
1718292445397161700,24.45716162109375,0.6368931531906128,1.259671688079834,1.725946307182312
1718292445446931700,24.506931640625,0.7649027109146118,1.3949612379074097,1.5175418853759766
1718292445496702700,24.55670263671875,0.6429844498634338,1.7967449426651,1.4496716260910034
1718292445546473700,24.6064736328125,0.6759960651397705,1.2878268957138062,0.9844585061073303
1718292445596244700,24.65624462890625,0.4158712923526764,1.2101233005523682,0.5959557890892029
1718292445646015700,24.706015625,0.3317273259162903,0.8813938498497009,0.5972777009010315
1718292445695786800,24.755786865234374,0.3268606662750244,0.22876614332199097,0.47884055972099304
1718292445745557800,24.805557861328126,0.205177903175354,-0.06910306960344315,0.2804811894893646
1718292445795327700,24.85532763671875,0.21054990589618683,-0.050473254173994064,-0.005104599986225367
1718292445845098800,24.9050986328125,-0.03915146738290787,0.027787387371063232,-0.08132442086935043
1718292445894869800,24.954869873046874,-0.10782454162836075,0.1265067756175995,-0.2236943542957306
1718292445944640500,25.004640625,0.056731216609478,-0.1268719881772995,-0.23562879860401154
1718292445994411800,25.054411865234375,0.0894564688205719,-0.2384634166955948,-0.32379579544067383
1718292446044182800,25.104182861328123,0.005046025849878788,-0.25011762976646423,-0.5860475301742554
1718292446093952800,25.153952880859375,-0.0945071205496788,-0.7292392253875732,-0.5650177001953125
1718292446143723800,25.203723876953124,0.047549787908792496,-0.7754139304161072,-0.4512386918067932
1718292446193494800,25.253494873046876,0.13877516984939575,-0.6649118065834045,-0.5287493467330933
1718292446243265500,25.303265625,0.3108145296573639,-0.828467845916748,-0.7507493495941162
1718292446293036800,25.353036865234376,0.3783779740333557,-0.8248833417892456,-0.8529406189918518
1718292446342807800,25.402807861328125,0.4966987669467926,-0.41252049803733826,-1.0314768552780151
1718292446392577500,25.45257763671875,0.6332375407218933,-0.14289170503616333,-1.015615463256836
1718292446442348800,25.502348876953125,0.8123926520347595,-0.2833075225353241,-1.1223692893981934
1718292446492119800,25.552119873046873,1.0379081964492798,-0.05694534629583359,-1.1617931127548218
1718292446541890600,25.601890625,1.2578719854354858,-0.2431763857603073,-1.201693058013916
1718292446591661600,25.65166162109375,1.2798033952713013,0.017764173448085785,-1.3130245208740234
1718292446641432800,25.701432861328126,1.1918065547943115,-0.09310364723205566,-1.3184267282485962
1718292446691202600,25.75120263671875,0.958154559135437,-0.3732592761516571,-1.1660740375518799
1718292446740973800,25.800973876953126,0.8194639086723328,-0.1893302947282791,-0.9329649806022644
1718292446790744800,25.850744873046875,0.6424171924591064,0.2500251233577728,-0.6315763592720032
1718292446840515600,25.900515625,0.13297030329704285,0.07763146609067917,-0.3054145872592926
1718292446890286600,25.95028662109375,-0.2339973747730255,0.1897965520620346,0.1570298820734024
1718292446940056600,26.000056640625,-0.5239322781562805,0.38904520869255066,0.2983017861843109
1718292446989827600,26.04982763671875,-0.9057349562644958,0.3416777551174164,0.38312727212905884
1718292447039598600,26.0995986328125,-1.0574126243591309,0.575594961643219,0.7960955500602722
1718292447089369900,26.149369873046876,-0.8239525556564331,0.7643832564353943,1.190239429473877
1718292447139140600,26.199140625,-0.39297008514404297,0.6617365479469299,1.6700807809829712
1718292447188911000,26.2489111328125,-0.19064481556415558,0.5807536840438843,1.9062175750732422
1718292447238682400,26.298682373046876,0.10093776881694794,1.0375065803527832,2.0532386302948
1718292447288453400,26.348453369140625,-0.38669878244400024,0.9051103591918945,1.855177879333496
1718292447338224000,26.39822412109375,-0.32893744111061096,0.42925864458084106,1.452269434928894
1718292447387995100,26.4479951171875,-0.2533835768699646,0.31148669123649597,1.2023369073867798
1718292447437765000,26.49776513671875,-0.22370535135269165,0.4456033706665039,0.9429150819778442
1718292447487536000,26.5475361328125,-0.3020959198474884,0.48857423663139343,0.7518872022628784
1718292447537307100,26.59730712890625,-0.30720648169517517,0.05491270869970322,0.6004295349121094
1718292447587078400,26.647078369140626,-0.2458215355873108,0.1549961268901825,0.30908551812171936
1718292447636848000,26.69684814453125,-0.1560703068971634,-0.5126499533653259,-0.16148994863033295
1718292447686619400,26.746619384765626,0.007602212019264698,-0.28286027908325195,-0.26352840662002563
1718292447736390100,26.79639013671875,-0.16181683540344238,-0.4028448164463043,-0.4724769592285156
1718292447786161200,26.8461611328125,-0.22182616591453552,-1.0612337589263916,-0.589313268661499
1718292447835932200,26.89593212890625,-0.18788984417915344,-1.2889158725738525,-0.8756142258644104
1718292447885702100,26.9457021484375,-0.2569747269153595,-0.7735778093338013,-0.8299310803413391
1718292447935473200,26.99547314453125,-0.16522124409675598,-0.9519467949867249,-0.8297154307365417
1718292447985244200,27.045244140625,-0.09961221367120743,-0.28250622749328613,-0.5732468962669373
1718292448035015200,27.09501513671875,0.3692832291126251,-0.37714487314224243,-1.1583678722381592
1718292448084785200,27.14478515625,0.10437212884426117,-0.4450085461139679,-1.0333406925201416
1718292448134556400,27.194556396484376,0.5636052489280701,-0.474130243062973,-1.4959416389465332
1718292448184326700,27.24432666015625,0.7159922122955322,-0.556598424911499,-1.4835370779037476
1718292448234097700,27.29409765625,0.8928290009498596,-0.27728161215782166,-1.5769892930984497
1718292448283867600,27.34386767578125,0.7957686185836792,-0.2641959488391876,-1.3158808946609497
1718292448333638700,27.393638671875,0.7786891460418701,-0.2320113182067871,-1.1733347177505493
1718292448383409700,27.44340966796875,0.6981229186058044,-0.31220778822898865,-0.6987975835800171
1718292448433179600,27.4931796875,0.7701616883277893,-0.26594078540802,-0.5977126955986023
1718292448482950700,27.54295068359375,0.5834386348724365,-0.13925887644290924,-0.13654883205890656
1718292448532721700,27.5927216796875,0.4404061436653137,0.2697202265262604,0.33908239006996155
1718292448582492700,27.64249267578125,0.35311198234558105,0.5744630098342896,0.7708346247673035
1718292448632262700,27.6922626953125,0.08026517182588577,0.585037350654602,1.060218334197998
1718292448682033700,27.74203369140625,-0.3235134780406952,0.2788872718811035,1.8040930032730103
1718292448731804700,27.7918046875,-0.4409390985965729,0.37205010652542114,1.9553667306900024
1718292448781575700,27.84157568359375,-0.2777385413646698,0.8182327747344971,2.0900418758392334
1718292448831346000,27.891345947265624,0.08799093961715698,1.3478821516036987,2.27998948097229
1718292448881116700,27.94111669921875,0.09545518457889557,0.9828779697418213,2.1482975482940674
1718292448930887700,27.9908876953125,0.1540883630514145,0.6780630946159363,2.1678221225738525
1718292448980657700,28.04065771484375,-0.047317489981651306,0.5625750422477722,1.9007292985916138
1718292449030428700,28.0904287109375,-0.2694137394428253,0.33227357268333435,1.8170583248138428
1718292449080199700,28.14019970703125,0.07656321674585342,-0.5398377180099487,1.0237065553665161
1718292449129970700,28.189970703125,0.08240985125303268,-0.1699756383895874,0.25975409150123596
1718292449179740000,28.239739990234376,-0.22761397063732147,0.2894892990589142,0.724580705165863
1718292449229511000,28.289510986328125,-0.36624935269355774,0.4092772901058197,0.3120914399623871
1718292449279282200,28.3392822265625,0.024401724338531494,-0.28542736172676086,-1.1149629354476929
1718292449329052000,28.389052001953125,0.577487587928772,-0.05471406877040863,-2.079190492630005
1718292449378823200,28.4388232421875,0.560784637928009,-1.0296831130981445,-2.2429039478302
1718292449428594200,28.48859423828125,0.16121143102645874,-1.2227435111999512,-1.8521665334701538
1718292449478364000,28.538364013671874,0.4927985966205597,-1.3111917972564697,-2.7486627101898193
1718292449528135200,28.58813525390625,0.804286539554596,-1.2409217357635498,-2.477602243423462
1718292449577906200,28.63790625,-0.3967335522174835,-0.6554842591285706,-1.5216914415359497
1718292449627677000,28.687677001953126,0.04118998721241951,-1.1735259294509888,-1.8409873247146606
1718292449677447200,28.737447265625,0.3038563132286072,-0.11949153244495392,-2.223803997039795
1718292449727218200,28.78721826171875,0.2994227111339569,-0.20643971860408783,-1.9717353582382202
1718292449776989000,28.836989013671875,0.09245097637176514,0.1731610745191574,-1.046195149421692
1718292449826759200,28.88675927734375,-0.248707115650177,0.6231179237365723,0.029531307518482208
1718292449876530200,28.9365302734375,-0.5010082125663757,0.675122857093811,0.9382616281509399
1718292449926301000,28.986301025390624,-0.8726094365119934,0.6582130789756775,1.6710045337677002
1718292449976071200,29.0360712890625,-0.9763121604919434,0.951978325843811,2.3408873081207275
1718292450025842000,29.085842041015624,-0.7567822337150574,1.1160739660263062,2.5731253623962402
1718292450075613000,29.135613037109376,-0.4151633679866791,0.6676381826400757,2.4243438243865967
1718292450125383200,29.185383056640624,-0.32953953742980957,0.19697026908397675,2.2500946521759033
1718292450175154200,29.235154296875,-0.24239809811115265,0.6374941468238831,1.9288901090621948
1718292450224925200,29.28492529296875,-0.506748378276825,0.4218560755252838,1.346282958984375
1718292450274695200,29.334695068359373,-0.5464417934417725,-0.03735549375414848,1.1044172048568726
1718292450324466200,29.384466064453125,-0.19128137826919556,-0.5014990568161011,0.038362883031368256
1718292450374237200,29.4342373046875,-0.0822555422782898,-0.603577733039856,-0.7871386408805847
1718292450424007200,29.484007080078126,0.095931775867939,-0.7345247864723206,-1.4166613817214966
1718292450473778200,29.533778076171874,0.03414946794509888,-1.1634317636489868,-1.2622214555740356
1718292450523549200,29.583549072265626,0.1142878532409668,-0.2273053079843521,-1.506750464439392
1718292450573319200,29.633319091796874,0.5072401762008667,-1.0123831033706665,-1.8353300094604492
1718292450623090200,29.683090087890626,1.046187162399292,-0.31614843010902405,-1.8935437202453613
1718292450672861200,29.732861083984375,1.4883469343185425,-0.4596361815929413,-2.1573891639709473
1718292450722631200,29.782631103515627,1.7490870952606201,0.02179623208940029,-2.2071235179901123
1718292450772402200,29.832402099609375,1.148046851158142,-0.09480220824480057,-1.571460247039795
1718292450822173200,29.882173095703124,0.5884844660758972,-0.5011043548583984,-0.9331006407737732
1718292450871943200,29.931943115234375,0.25583282113075256,0.2796482443809509,-0.3870781660079956
1718292450921714200,29.981714111328124,-0.513049304485321,0.9586636424064636,0.7477152347564697
1718292450971484200,30.031484130859376,-0.7481581568717957,1.1647372245788574,1.2722097635269165
1718292451021255200,30.081255126953124,-1.0834506750106812,0.6879501938819885,2.1527979373931885
1718292451071026200,30.131026123046876,-1.1045520305633545,0.7147569060325623,2.8858466148376465
1718292451120796200,30.180796142578124,-0.9499518871307373,0.7102495431900024,2.8649919033050537
1718292451170568000,30.23056787109375,-0.514179527759552,0.5248703360557556,2.6312015056610107
1718292451220339000,30.2803388671875,-0.5449482202529907,0.8717021346092224,2.274562358856201
1718292451270109000,30.33010888671875,-0.3999186158180237,0.46014702320098877,1.5289212465286255
1718292451319880000,30.3798798828125,-0.15152916312217712,0.5491093993186951,0.6774066686630249
1718292451369650000,30.42964990234375,0.2793808877468109,0.8030363917350769,-0.7358241677284241
1718292451419421000,30.4794208984375,0.501963198184967,0.6408639550209045,-0.9760066866874695
1718292451469192000,30.52919189453125,0.2556391656398773,-0.5836477875709534,-0.9488013982772827
1718292451518962000,30.5789619140625,0.6123737096786499,-0.8245656490325928,-1.7800387144088745
1718292451568733000,30.62873291015625,0.5857513546943665,-0.5764304995536804,-1.2355051040649414
1718292451618504000,30.67850390625,0.4533538520336151,-1.2693276405334473,-1.9280951023101807
1718292451668274000,30.72827392578125,0.7030836939811707,-1.0462497472763062,-1.713999629020691
1718292451718045000,30.778044921875,1.0559254884719849,-0.03309579938650131,-2.8594541549682617
1718292451767815000,30.82781494140625,0.7427911758422852,-1.366781234741211,-2.3668015003204346
1718292451817586000,30.8775859375,0.5411714315414429,-0.7237662672996521,-1.3973724842071533
1718292451867357000,30.92735693359375,0.4894688129425049,-0.1490989625453949,-0.42115116119384766
1718292451917127000,30.977126953125,0.4985364079475403,0.06988140940666199,0.2269338071346283
1718292451966898000,31.02689794921875,0.5190973281860352,-0.10603748261928558,0.31808462738990784
1718292452016668000,31.07666796875,0.6466984748840332,-0.431679904460907,-0.017339447513222694
1718292452066439000,31.12643896484375,1.349097490310669,-0.0012683698441833258,-0.20026913285255432
1718292452116210000,31.1762099609375,0.6386479139328003,-0.011617048643529415,0.0970759242773056
1718292452165980000,31.22597998046875,0.5101591348648071,-0.41173070669174194,0.18049955368041992
1718292452215750700,31.275750732421876,0.06492506712675095,-0.20208057761192322,0.18949192762374878
1718292452265521000,31.32552099609375,-0.1872236728668213,0.4432464838027954,0.19187358021736145
1718292452315292000,31.3752919921875,-0.6731473803520203,0.48173582553863525,0.4646875560283661
1718292452365061600,31.4250615234375,-1.0797797441482544,0.5794565081596375,1.1814110279083252
1718292452414833000,31.4748330078125,-1.185071349143982,0.3348020613193512,1.3596538305282593
1718292452464604000,31.52460400390625,-1.2169917821884155,0.45931902527809143,1.9689114093780518
1718292452514374000,31.574373779296874,-0.8195194602012634,0.0873180404305458,1.886997103691101
1718292452564145000,31.624144775390626,-0.7387537956237793,0.0874493196606636,2.171664237976074
1718292452613914600,31.67391455078125,-0.42583879828453064,0.3960621953010559,2.8837294578552246
1718292452663686000,31.723685791015626,-0.37508630752563477,-0.1266334354877472,1.928257703781128
1718292452713457000,31.773456787109374,-0.5708056092262268,0.3479965627193451,0.8378207087516785
1718292452763226600,31.8232265625,-0.23951201140880585,-0.31054309010505676,0.24305112659931183
1718292452812998000,31.872997802734375,-0.06841255724430084,-0.8551438450813293,-0.5666313767433167
1718292452862767600,31.922767578125,-0.0037884386256337166,-0.7681556940078735,-1.7445592880249023
1718292452912539000,31.972538818359375,-0.23797154426574707,-1.5090469121932983,-1.1815764904022217
1718292452962308900,32.02230883789063,0.15921629965305328,-1.2342835664749146,-2.780794382095337
1718292453012079600,32.07207958984375,0.28304731845855713,-0.9258113503456116,-2.639869451522827
1718292453061851000,32.121850830078124,0.12900184094905853,-0.837302565574646,-2.8976223468780518
1718292453111620900,32.171620849609376,0.20055724680423737,-1.2271803617477417,-2.641721725463867
1718292453161391600,32.2213916015625,0.1606367528438568,-0.3568373918533325,-2.089663028717041
1718292453211161600,32.27116162109375,-0.39346134662628174,0.023622971028089523,-1.2216616868972778
1718292453260932400,32.32093237304687,-0.30760788917541504,0.06456112116575241,-0.6133090853691101
1718292453310702600,32.37070263671875,-0.7660894393920898,0.41690972447395325,0.5029093027114868
1718292453360473600,32.4204736328125,-0.9104914665222168,1.1400610208511353,2.097609758377075
1718292453410243600,32.47024365234375,-0.8775493502616882,0.8220683932304382,2.562204360961914
1718292453460014600,32.5200146484375,-0.8503043055534363,1.0309514999389648,3.1170105934143066
1718292453509785600,32.56978564453125,-0.6457294225692749,0.8367379307746887,3.004673957824707
1718292453559555600,32.6195556640625,-0.5700255036354065,0.3590248227119446,2.704028367996216
1718292453609326600,32.66932666015625,-0.33965668082237244,0.6041015386581421,1.95392644405365
1718292453659096600,32.7190966796875,-0.3097262680530548,0.25740814208984375,0.8633268475532532
1718292453708867600,32.76886767578125,-0.28274407982826233,0.23597010970115662,0.15327030420303345
1718292453758637600,32.818637451171874,0.19709013402462006,0.19260668754577637,-0.29300248622894287
1718292453808408600,32.86840869140625,0.2648010849952698,-0.08264576643705368,-1.0281624794006348
1718292453858178600,32.918178466796874,0.38254690170288086,-0.5852077007293701,-1.7524917125701904
1718292453907949600,32.96794946289062,0.7804213762283325,-1.0413684844970703,-2.8263680934906006
1718292453957719600,33.017719482421874,0.43220874667167664,-0.47875234484672546,-2.121581792831421
1718292454007490600,33.06749047851562,0.302664577960968,-0.8320038318634033,-2.630218029022217
1718292454057260500,33.117260498046875,0.21549071371555328,-0.7597745656967163,-2.582141399383545
1718292454107031600,33.16703149414062,0.12475956231355667,-0.8177637457847595,-2.2300126552581787
1718292454156801300,33.21680126953125,-0.1564706712961197,-0.47733038663864136,-1.413297414779663
1718292454206572300,33.266572265625,-0.27963268756866455,0.09777050465345383,-0.651975691318512
1718292454256343300,33.31634326171875,-0.3441947102546692,0.5973647236824036,0.41738361120224
1718292454306113300,33.36611328125,-0.6276756525039673,1.3733726739883423,2.4670512676239014
1718292454355884300,33.41588427734375,-1.3055001497268677,1.541473627090454,4.331547260284424
1718292454405654300,33.465654296875,-0.8897169232368469,0.9319658875465393,3.3644702434539795
1718292454455425300,33.51542529296875,-0.8014947175979614,-0.22538712620735168,2.220431327819824
1718292454505195300,33.5651953125,-0.20867903530597687,0.8263497948646545,1.6800369024276733
1718292454554966300,33.61496630859375,-0.567384660243988,0.2884593605995178,1.0833083391189575
1718292454604736300,33.664736328125,-0.6964119076728821,0.15590117871761322,0.4695937931537628
1718292454654507500,33.71450756835937,0.3627709150314331,-0.22625088691711426,-1.3777250051498413
1718292454704277200,33.76427734375,0.8613611459732056,-0.19939248263835907,-1.9795119762420654
1718292454754048300,33.81404833984375,0.5494256019592285,-0.8812445402145386,-2.4309635162353516
1718292454803818200,33.863818359375,-0.1565794050693512,-1.1263461112976074,-1.181311011314392
1718292454853589200,33.91358935546875,-0.16426542401313782,-0.9086866974830627,-0.9975991249084473
1718292454903359500,33.963359375,0.8213645219802856,-1.1228989362716675,-1.9053746461868286
1718292454953130200,34.01313012695312,0.8320273160934448,0.042712531983852386,-1.722880244255066
1718292455002900500,34.062900390625,1.033419132232666,-0.45075511932373047,-2.1531894207000732
1718292455052671200,34.11267114257812,1.2375972270965576,-0.2863330543041229,-2.273667812347412
1718292455102441200,34.162441162109374,0.2197156697511673,-0.1716262698173523,-0.716273307800293
1718292455152212500,34.21221240234375,0.003818186465650797,0.29888975620269775,0.334087610244751
1718292455201983200,34.26198315429688,-0.2713233232498169,0.16873709857463837,1.357988715171814
1718292455251754000,34.31175390625,-0.5656227469444275,0.5020323395729065,2.501662254333496
1718292455301524200,34.36152416992188,-0.6152629256248474,1.1892473697662354,2.5557587146759033
1718292455351295000,34.411294921875,-0.6675447225570679,1.0575276613235474,2.6940407752990723
1718292455401065200,34.46106518554687,-0.22886264324188232,0.8798108100891113,2.6243643760681152
1718292455450836200,34.51083618164063,0.4188213348388672,0.5104431509971619,2.3126220703125
1718292455500606000,34.56060595703125,-0.1068551242351532,0.006019433960318565,1.6948143243789673
1718292455550377200,34.61037719726563,-0.2126498967409134,-0.2988276779651642,1.016465187072754
1718292455600147000,34.66014697265625,-0.6009660959243774,-0.34396252036094666,0.8028618693351746
1718292455649918000,34.70991796875,-0.3321283161640167,-0.562650203704834,-0.3048061430454254
1718292455699688200,34.75968823242187,-0.08936643600463867,-0.48112738132476807,-1.2501682043075562
1718292455749459000,34.809458984375,-0.33687397837638855,-1.4222217798233032,-1.1941710710525513
1718292455799229200,34.85922924804687,-0.4326813220977783,-2.174909830093384,-1.3384149074554443
1718292455848999000,34.9089990234375,0.3408135771751404,-1.3947093486785889,-2.0230727195739746
1718292455898770200,34.95877026367187,0.9785415530204773,0.1811085194349289,-2.400482416152954
1718292455948540200,35.0085400390625,1.0851035118103027,-0.018451422452926636,-2.680988073348999
1718292455998311200,35.05831127929687,1.1035667657852173,-0.39689335227012634,-2.5159568786621094
1718292456048081200,35.1080810546875,0.7649908065795898,-0.5200989842414856,-2.149411201477051
1718292456097852000,35.15785180664062,0.04810352250933647,-0.3257482349872589,-0.9080588221549988
1718292456147622100,35.2076220703125,-0.12606866657733917,0.587186872959137,0.14073987305164337
1718292456197392600,35.257392578125,-0.543041467666626,0.9150728583335876,1.3941247463226318
1718292456247162600,35.30716259765625,-0.7175480127334595,1.3768876791000366,2.7325823307037354
1718292456296933600,35.35693359375,-0.6516016125679016,1.278441071510315,3.2617809772491455
1718292456346703600,35.40670361328125,0.28385230898857117,0.9342793822288513,2.9677250385284424
1718292456396474600,35.456474609375,0.4082261919975281,0.6370292901992798,2.5321202278137207
1718292456446244600,35.50624462890625,0.1458735316991806,0.5057783126831055,2.001326322555542
1718292456496015600,35.556015625,-0.22807453572750092,0.6335598230361938,1.4301482439041138
1718292456545785600,35.60578564453125,-0.08708050101995468,-0.3159392476081848,0.020467037335038185
1718292456595555600,35.6555556640625,0.005727717187255621,-0.13039474189281464,-0.611273467540741
1718292456645326600,35.70532666015625,-0.158488467335701,-1.59584641456604,-0.7947011590003967
1718292456695096600,35.7550966796875,-0.10471828281879425,-0.7023664712905884,-1.8953187465667725
1718292456744867600,35.80486767578125,0.5643748641014099,-0.5436767339706421,-2.4206295013427734
1718292456794637600,35.854637451171875,0.4999397397041321,-0.8549963235855103,-2.542243480682373
1718292456844408600,35.90440869140625,0.6178144812583923,-1.5873416662216187,-3.0755581855773926
1718292456894178600,35.954178466796876,0.45416459441185,-0.6852178573608398,-2.5283045768737793
1718292456943949800,36.00394970703125,0.15867172181606293,-0.5507824420928955,-2.1173715591430664
1718292456993719600,36.053719482421876,-0.13723579049110413,-0.18020807206630707,-1.3237227201461792
1718292457043489800,36.10348974609375,-0.2984309196472168,0.4655102491378784,-0.41306623816490173
1718292457093260500,36.153260498046876,-0.8161491751670837,1.1624435186386108,1.080444097518921
1718292457143030500,36.20303051757813,-0.7937325239181519,1.4122124910354614,2.300288200378418
1718292457192802300,36.25280224609375,-0.770682692527771,1.0170326232910156,2.9823780059814453
1718292457242572000,36.30257202148437,-0.257139652967453,0.9226680994033813,3.1583025455474854
1718292457292343000,36.35234301757812,-0.28608188033103943,0.7215385437011719,3.318039655685425
1718292457342113000,36.40211303710937,-0.2289935201406479,0.94419264793396,2.798764705657959
1718292457391884000,36.45188403320312,-0.2805126905441284,0.6280340552330017,2.3981168270111084
1718292457441654300,36.501654296875,-0.2899196743965149,1.0877113342285156,1.574296474456787
1718292457491424000,36.551424072265625,0.3617110252380371,0.6455520987510681,-0.05333028361201286
1718292457541195300,36.6011953125,0.7000573873519897,0.2924225628376007,-1.0608352422714233
1718292457590965000,36.650965087890626,0.5328753590583801,-0.19262267649173737,-1.9539542198181152
1718292457640736000,36.700736083984374,0.5709039568901062,-0.36912161111831665,-2.7823448181152344
1718292457690506000,36.750506103515626,0.33717629313468933,-0.6824206113815308,-2.4112062454223633
1718292457740277000,36.800277099609374,1.017329216003418,-1.2773455381393433,-3.695716381072998
1718292457790047200,36.850047119140626,1.270262598991394,-0.3455831706523895,-3.3646883964538574
1718292457839817000,36.89981689453125,0.7813304662704468,-0.6969273686408997,-3.217273235321045
1718292457889588200,36.94958813476563,-0.21660107374191284,0.07790195196866989,-0.607799768447876
1718292457939358000,36.99935791015625,-0.26154080033302307,0.2593778669834137,0.5164667367935181
1718292457989129000,37.04912890625,-0.5329650044441223,0.5148112773895264,1.7833267450332642
1718292458038899200,37.09889916992187,-0.6139518618583679,1.068076252937317,2.886134624481201
1718292458088669200,37.14866918945312,-0.39076635241508484,1.4351015090942383,3.1519412994384766
1718292458138440200,37.19844018554687,0.2568647563457489,1.7201995849609375,3.2241721153259277
1718292458188209700,37.24820971679687,0.3710777759552002,0.8890781402587891,2.9492275714874268
1718292458237980700,37.29798071289063,0.2842393219470978,0.8329033851623535,2.1923129558563232
1718292458287750700,37.34775073242187,-0.027821572497487068,0.5110094547271729,0.8974098563194275
1718292458337521700,37.39752172851563,0.4884050190448761,0.38920363783836365,-0.9579694867134094
1718292458387291600,37.44729174804687,0.8241943120956421,0.08234164863824844,-1.4761714935302734
1718292458437062000,37.497061767578124,0.7867363691329956,-1.066197156906128,-1.9345492124557495
1718292458486832600,37.54683251953125,0.6884276270866394,-0.7045001983642578,-2.451369524002075
1718292458536602600,37.5966025390625,1.0937918424606323,-1.199263334274292,-2.8268637657165527
1718292458586373600,37.64637353515625,0.7878612279891968,-0.9508082866668701,-2.757639169692993
1718292458636143600,37.6961435546875,0.5190457105636597,-1.0491077899932861,-2.6547718048095703
1718292458685913600,37.74591357421875,0.37068238854408264,-0.8280152082443237,-1.8514020442962646
1718292458735684600,37.7956845703125,0.23423413932323456,-0.17640459537506104,-1.0316060781478882
1718292458785454800,37.84545483398438,0.0984169989824295,0.2907988727092743,0.11040894687175751
1718292458835225600,37.8952255859375,-0.15484394133090973,1.0191658735275269,1.755815029144287
1718292458884995600,37.94499560546875,-0.3954426050186157,1.0678119659423828,2.704103469848633
1718292458934765600,37.994765625,-0.5606040358543396,1.085614800453186,3.1788082122802734
1718292458984536600,38.04453662109375,-0.438410222530365,0.5018498301506042,2.9138753414154053
1718292459034306800,38.09430688476562,-0.9389349222183228,0.2366098314523697,2.693103790283203
1718292459084077600,38.14407763671875,-0.7152438163757324,0.056224118918180466,2.3470706939697266
1718292459133847800,38.19384790039062,-0.6872694492340088,0.44493207335472107,1.416467308998108
1718292459183617800,38.24361767578125,-0.20210568606853485,-0.05424879863858223,-0.2093842327594757
1718292459233388800,38.29338891601562,0.09291312098503113,-0.20409457385540009,-0.9206726551055908
1718292459283158800,38.34315869140625,-0.16800163686275482,-0.56151282787323,-1.0739318132400513
1718292459332928800,38.3929287109375,0.01566031388938427,-0.5796380639076233,-1.8010001182556152
1718292459382700000,38.442699951171875,0.303483784198761,-0.8522007465362549,-2.2798986434936523
1718292459432469800,38.4924697265625,0.3412921726703644,-0.7203198075294495,-2.4210381507873535
1718292459482241000,38.542240966796875,0.8170020580291748,-0.5999038815498352,-2.636507749557495
1718292459532010800,38.5920107421875,0.6780701875686646,-0.4744289219379425,-2.7219743728637695
1718292459581781000,38.64178100585937,0.5146732926368713,-0.749165952205658,-2.020429849624634
1718292459631551700,38.6915517578125,0.33155155181884766,-0.15548917651176453,-0.8354982733726501
1718292459681322000,38.74132202148437,-0.16178330779075623,0.845938503742218,0.4490876793861389
1718292459731091700,38.791091796875,-0.38789165019989014,1.1432148218154907,2.1643900871276855
1718292459780862700,38.84086279296875,-0.3203337490558624,1.1894432306289673,2.9814412593841553
1718292459830633000,38.890633056640624,-0.12544338405132294,1.401841640472412,3.1752469539642334
1718292459880402700,38.940402587890624,-0.0005221165483817458,0.9489298462867737,3.2585055828094482
1718292459930174000,38.990174072265624,0.3719596862792969,0.8685030937194824,2.8775010108947754
1718292459979943700,39.039943603515624,0.5018418431282043,1.2893040180206299,2.1636409759521484
1718292460029714000,39.0897138671875,0.4437207281589508,1.316668152809143,0.8477433323860168
1718292460079485000,39.13948486328125,0.6620078086853027,0.4879964590072632,-0.26342248916625977
1718292460129255000,39.1892548828125,1.0784404277801514,0.41210466623306274,-1.205101490020752
1718292460179024100,39.239024169921876,1.167899489402771,0.21159712970256805,-1.8997151851654053
1718292460228795400,39.28879541015625,0.7632420659065247,-1.0878586769104004,-2.1830201148986816
1718292460278565400,39.3385654296875,0.8088793158531189,-0.9190013408660889,-2.766604423522949
1718292460328335400,39.38833544921875,1.1152708530426025,-0.9179512858390808,-3.1524152755737305
1718292460378106400,39.4381064453125,0.9811643958091736,-1.349399209022522,-3.2554407119750977
1718292460427876400,39.48787646484375,0.3683907389640808,-0.814882755279541,-2.2869701385498047
1718292460477646300,39.53764624023437,0.1143375039100647,-0.8463115692138672,-1.2989652156829834
1718292460527417300,39.58741723632812,-0.23865549266338348,0.4106779098510742,0.2299831658601761
1718292460577187300,39.637187255859374,-0.4486079216003418,1.093675971031189,1.5531070232391357
1718292460626957300,39.686957275390625,-0.7354336380958557,1.3724536895751953,3.030789852142334
1718292460676728300,39.736728271484374,-0.5577547550201416,1.2511407136917114,3.56630277633667
1718292460726498300,39.786498291015626,-0.2582107484340668,0.740897536277771,3.2713568210601807
1718292460776268300,39.83626831054688,-0.49925029277801514,0.07301365584135056,2.9310696125030518
1718292460826039300,39.886039306640626,-0.4650173783302307,0.2768821120262146,2.0113508701324463
1718292460875809300,39.93580932617188,-0.2543363869190216,0.2867353856563568,0.7803595662117004
1718292460925579300,39.98557934570312,0.36545330286026,-0.1624879240989685,-0.3916209936141968
1718292460975350300,40.03535034179688,0.42370933294296265,-0.1324305385351181,-1.1755245923995972
1718292461025120300,40.08512036132812,0.1041886955499649,-1.4667519330978394,-1.7775754928588867
1718292461074890500,40.134890380859375,0.31747764348983765,-0.9986103773117065,-2.0725646018981934
1718292461124661200,40.1846611328125,0.7597503662109375,-1.4216111898422241,-3.138331413269043
1718292461174433000,40.23443310546875,0.878156304359436,-0.030399614945054054,-3.092656373977661
1718292461224202800,40.28420263671875,0.7595845460891724,-0.6762974262237549,-3.127868175506592
1718292461273973000,40.33397290039063,0.3431839644908905,-0.8089114427566528,-2.193856954574585
1718292461323743700,40.38374365234375,-0.057331230491399765,0.12375479936599731,-0.9195705652236938
1718292461373514000,40.43351391601563,-0.5423992872238159,1.1662464141845703,1.0518490076065063
1718292461423283700,40.48328369140625,-0.5540511608123779,1.4839835166931152,2.524805784225464
1718292461473055000,40.53305493164063,-0.495026171207428,1.2802979946136475,3.434675455093384
1718292461522825000,40.58282495117187,0.1299944669008255,0.7794037461280823,3.477839708328247
1718292461572595000,40.632594970703124,0.16495393216609955,0.8633910417556763,3.2745232582092285
1718292461622365000,40.682364990234376,-0.08899484574794769,0.6390084028244019,2.7980594635009766
1718292461672136000,40.732135986328124,-0.22756773233413696,0.7252947688102722,1.8999183177947998
1718292461721906000,40.781906005859376,0.25797712802886963,-0.3618195056915283,-0.25061243772506714
1718292461771676000,40.83167602539063,0.48853468894958496,-0.35330140590667725,-1.2900350093841553
1718292461821446000,40.88144580078125,0.35140714049339294,-1.073520541191101,-1.8839949369430542
1718292461871217000,40.931216796875,0.24441276490688324,-1.0960074663162231,-2.171516180038452
1718292461920987000,40.98098681640625,0.5261555910110474,-1.3900675773620605,-2.791740894317627
1718292461970757000,41.030757080078125,0.77660071849823,-0.7165712118148804,-3.099975824356079
1718292462020526800,41.08052685546875,0.4812217950820923,-0.7710312604904175,-3.0310776233673096
1718292462070297900,41.1302978515625,0.2560424506664276,-0.979925811290741,-2.5532426834106445
1718292462120067800,41.18006787109375,0.14862582087516785,-0.4424571692943573,-1.2694059610366821
1718292462169836000,41.2298359375,-0.0774877518415451,0.49324414134025574,0.41310828924179077
1718292462219607000,41.27960693359375,-0.30616095662117004,1.2213228940963745,2.340153217315674
1718292462269377000,41.329376953125,-0.419628769159317,1.583330512046814,3.3317136764526367
1718292462319147000,41.37914697265625,-0.5495753884315491,0.7788722515106201,3.523662805557251
1718292462368917000,41.4289169921875,-0.6461202502250671,0.3889353573322296,3.3948428630828857
1718292462418687200,41.47868725585938,-0.8047415018081665,0.22711123526096344,2.9195680618286133
1718292462468458000,41.5284580078125,-0.7956436276435852,0.09488203376531601,2.0062272548675537
1718292462518228000,41.57822802734375,-0.19347822666168213,-0.4344240427017212,0.030110154300928116
1718292462567998200,41.62799829101562,0.1132282018661499,-0.37060049176216125,-1.3669381141662598
1718292462617768000,41.67776782226562,0.01239954773336649,-0.9386754631996155,-2.0145761966705322
1718292462667539200,41.72753930664062,-0.25376445055007935,-1.371809959411621,-2.517693281173706
1718292462717309000,41.77730883789062,0.15467694401741028,-1.1622942686080933,-2.4429922103881836
1718292462767079200,41.8270791015625,0.9614509344100952,-0.44016194343566895,-3.856416702270508
1718292462816849000,41.876848876953126,0.5953896045684814,-0.5860048532485962,-3.1477243900299072
1718292462866620200,41.9266201171875,0.3824999928474426,-1.0685275793075562,-2.44844126701355
1718292462916390000,41.976389892578126,-0.08017856627702713,0.2917017340660095,-0.8631318807601929
1718292462966160100,42.02616015625,-0.7652326226234436,1.016006588935852,1.0415478944778442
1718292463015929900,42.07592993164062,-0.7131750583648682,1.5199713706970215,2.69199800491333
1718292463065700000,42.1257001953125,-0.6955545544624329,1.2345190048217773,3.776902914047241
1718292463115471000,42.17547119140625,-0.19821378588676453,0.8224754929542542,3.6070597171783447
1718292463165241900,42.22524194335937,-0.3981628715991974,0.5268251299858093,3.2459352016448975
1718292463215011800,42.27501171875,-0.27438095211982727,1.0617427825927734,2.7157537937164307
1718292463264781800,42.32478173828125,-0.1810760647058487,0.7680827975273132,1.503470778465271
1718292463314551800,42.3745517578125,0.20589295029640198,0.02840581163764,-0.4754696190357208
1718292463364322800,42.42432275390625,0.43151870369911194,-0.1577274650335312,-1.6584111452102661
1718292463414092800,42.4740927734375,0.3377099335193634,-0.9769629240036011,-1.9428598880767822
1718292463463862800,42.52386279296875,0.4872955083847046,-1.1606041193008423,-2.457537889480591
1718292463513632800,42.5736328125,0.7725552320480347,-0.3899352252483368,-3.0712075233459473
1718292463563403000,42.623403076171876,0.7789748311042786,-0.7317931056022644,-3.5050601959228516
1718292463613174000,42.673174072265624,0.6659287214279175,-1.3628586530685425,-2.6953186988830566
1718292463662943700,42.72294384765625,0.6515583992004395,-1.1231188774108887,-1.6985328197479248
1718292463712714000,42.7727138671875,0.08570758998394012,-0.24436819553375244,-0.5136798024177551
1718292463762483700,42.82248364257813,-0.22668902575969696,0.6423200964927673,1.4666900634765625
1718292463812254000,42.87225390625,-0.45229458808898926,1.435046672821045,3.146573305130005
1718292463862024000,42.92202392578125,-0.8030094504356384,1.526916265487671,3.829514265060425
1718292463911795000,42.971794921875,-0.29726070165634155,0.7962462902069092,3.3340506553649902
1718292463961564700,43.021564697265624,-0.15093880891799927,0.3101164996623993,3.060422658920288
1718292464011335000,43.0713349609375,-0.3570157587528229,0.7096744179725647,2.4302475452423096
1718292464061105000,43.12110498046875,-0.23103871941566467,-0.6923601627349854,0.3150845170021057
1718292464110875000,43.170875,-0.11231797188520432,-0.8333084583282471,-0.5160515904426575
1718292464160644900,43.220644775390625,-0.3333132863044739,-1.4235864877700806,-1.3792351484298706
1718292464210415400,43.27041528320313,-0.02353282831609249,-1.0444552898406982,-2.313988447189331
1718292464260185600,43.320185546875,0.445913165807724,-1.3970757722854614,-2.873265027999878
1718292464309955300,43.369955322265625,0.9865140914916992,-0.17636503279209137,-3.399610996246338
1718292464359725600,43.4197255859375,1.0701566934585571,-0.5577201843261719,-3.310075521469116
1718292464409495300,43.46949536132813,0.51438307762146,-0.9770522713661194,-2.6391611099243164
1718292464459265500,43.519265625,0.11789145320653915,0.1183469370007515,-1.0601352453231812
1718292464509035500,43.569035400390625,-0.3396618664264679,1.0096882581710815,0.47817525267601013
1718292464558806500,43.618806640625,-0.6307858824729919,1.505682349205017,2.515720844268799
1718292464608576500,43.668576416015625,-0.43038690090179443,1.6597239971160889,3.4353578090667725
1718292464658346500,43.71834643554688,0.004370273556560278,0.9224451780319214,3.6352274417877197
1718292464708116500,43.76811645507812,-0.07003924995660782,0.8817880749702454,3.4534268379211426
1718292464757886500,43.817886474609374,-0.2353782206773758,0.2785341441631317,2.818331718444824
1718292464807656400,43.867656494140626,-0.3068687617778778,0.5962254405021667,1.6121203899383545
1718292464857426400,43.91742651367188,0.005214007571339607,-0.2941511869430542,-0.3849475383758545
1718292464907196400,43.96719653320312,0.01266147755086422,-0.4187108278274536,-1.539689064025879
1718292464956967400,44.01696752929688,-0.036577239632606506,-0.7636653184890747,-1.7395797967910767
1718292465006737400,44.0667373046875,0.13844075798988342,-1.556954026222229,-2.744418144226074
1718292465056507600,44.116507568359374,0.9197074174880981,-0.83794105052948,-3.2143471240997314
1718292465106277400,44.16627734375,1.121216058731079,-0.36321574449539185,-3.448167085647583
1718292465156047600,44.21604760742188,0.6227973103523254,-1.2348244190216064,-2.8246352672576904
1718292465205817300,44.2658173828125,0.4518592953681946,-0.7924809455871582,-1.767458438873291
1718292465255587600,44.315587646484374,-0.175421342253685,0.3323426842689514,-0.09493251144886017
1718292465305357600,44.365357666015626,-0.2819461226463318,1.3277264833450317,1.7754217386245728
1718292465355128600,44.415128662109375,-0.5030829310417175,1.7479569911956787,3.342207908630371
1718292465404898600,44.464898681640626,-0.3807653784751892,1.6228392124176025,3.890184164047241
1718292465454668500,44.51466845703125,0.14226023852825165,0.7017431855201721,3.5027010440826416
1718292465504438500,44.5644384765625,0.08196824043989182,0.6776935458183289,2.9064536094665527
1718292465554208500,44.61420849609375,-0.4173108637332916,0.6618189811706543,2.158557176589966
1718292465603978800,44.66397875976563,0.034077875316143036,0.10479118674993515,0.6154127717018127
1718292465653748500,44.71374853515625,0.32511332631111145,-0.212883859872818,-1.3313102722167969
1718292465703518700,44.76351879882812,0.4202702045440674,-0.4893537163734436,-2.232656717300415
1718292465753288400,44.81328833007812,0.02744554728269577,-1.030941128730774,-2.1837685108184814
1718292465803058700,44.86305859375,0.9380936026573181,-1.1967498064041138,-3.5913333892822266
1718292465852829400,44.91282934570312,0.7578545808792114,-0.30463534593582153,-3.743147611618042
1718292465902599700,44.962599609375,0.7458792328834534,-1.3314441442489624,-3.7766952514648438
1718292465952369400,45.01236938476563,0.2705315351486206,-0.991628885269165,-2.1666884422302246
1718292466002139600,45.0621396484375,0.014716492965817451,0.1984250843524933,-0.3779125213623047
1718292466051909400,45.11190942382812,-0.5391151905059814,1.5690680742263794,2.026853561401367
1718292466101679600,45.1616796875,-0.5188039541244507,1.5650763511657715,3.0885419845581055
1718292466151449300,45.21144946289063,-0.5617799162864685,1.3975688219070435,3.9245145320892334
1718292466201219800,45.2612197265625,0.13905629515647888,0.4012475907802582,3.8539235591888428
1718292466250989600,45.310989501953124,-0.09063518047332764,0.4490130841732025,3.2924373149871826
1718292466300759800,45.360759765625,-0.2936852276325226,0.6155984401702881,2.352989912033081
1718292466350529800,45.41052978515625,-0.2026633620262146,-0.01801813393831253,0.35710030794143677
1718292466400299800,45.4602998046875,0.3049110770225525,0.15170235931873322,-0.40777045488357544
1718292466450069800,45.51006982421875,0.15928354859352112,-0.6413825154304504,-1.1410213708877563
1718292466499840800,45.5598408203125,0.1319960057735443,-0.9700419306755066,-2.0245189666748047
1718292466549610500,45.609610595703124,0.5927236676216125,-1.1481281518936157,-2.482976198196411
1718292466599380700,45.659380615234376,0.7906339764595032,-0.46876493096351624,-3.145754098892212
1718292466649150700,45.70915063476563,0.5083701014518738,-0.34807658195495605,-2.7761118412017822
1718292466698920700,45.75892065429687,0.5519335269927979,-1.1939170360565186,-2.7193360328674316
1718292466748690700,45.808690673828124,0.613561749458313,-1.300660252571106,-1.7751610279083252
1718292466798460700,45.858460693359376,0.5019509196281433,0.04299086332321167,-0.8298757076263428
1718292466848230700,45.90823071289063,-0.03812377527356148,0.9363553524017334,1.095575213432312
1718292466898000600,45.95800073242187,-0.30131658911705017,1.4651068449020386,2.774918556213379
1718292466947770600,46.0077705078125,-0.4734593629837036,1.3259947299957275,3.559077262878418
1718292466997540600,46.05754052734375,-0.3950728476047516,0.9380199909210205,3.3385989665985107
1718292467047310600,46.107310546875,-0.43941932916641235,-0.1441688984632492,2.901442766189575
1718292467097080800,46.15708081054687,-0.501922607421875,0.40138378739356995,2.388031482696533
1718292467146850600,46.2068505859375,-0.5402430295944214,0.6844909191131592,1.5805484056472778
1718292467196620300,46.256620361328125,-0.1978158801794052,-0.683905303478241,-0.08017902076244354
1718292467246390300,46.306390380859376,-0.11651987582445145,-0.6194657683372498,-1.101060152053833
1718292467296160300,46.35616015625,0.14743293821811676,-0.7239232063293457,-1.512218952178955
1718292467345930200,46.40593017578125,0.2681797444820404,-1.65374755859375,-2.4946205615997314
1718292467395700200,46.4557001953125,0.8413270115852356,-0.27543213963508606,-3.1385059356689453
1718292467445470200,46.50547021484375,0.9649286866188049,-0.48726484179496765,-3.522841215133667
1718292467495240200,46.555240234375,0.8406552076339722,-0.8880462646484375,-3.0287742614746094
1718292467545010400,46.60501049804687,0.3456432819366455,-0.8587658405303955,-1.7447866201400757
1718292467594780200,46.6547802734375,0.04578407481312752,-0.0017808994743973017,-0.4459720849990845
1718292467644551200,46.70455126953125,-0.11659973114728928,0.4673788845539093,0.8370255827903748
1718292467694321400,46.7543212890625,-0.36252346634864807,1.171955943107605,2.4440574645996094
1718292467744091400,46.80409130859375,-0.5255752205848694,1.5725711584091187,3.1295342445373535
1718292467793861400,46.853861328125,-0.5158179998397827,1.1080347299575806,3.3729159832000732
1718292467843631400,46.90363134765625,-0.1496233344078064,0.49913737177848816,3.0651724338531494
1718292467893401300,46.9534013671875,-0.2727354168891907,0.5704567432403564,2.8241186141967773
1718292467943171300,47.00317138671875,-0.20575697720050812,0.6265279650688171,1.9138333797454834
1718292467992941300,47.05294140625,-0.021925415843725204,-0.6372811794281006,0.1521632969379425
1718292468042711300,47.10271118164062,0.24881121516227722,0.11349604278802872,-1.149368166923523
1718292468092481300,47.152481201171874,0.09781473129987717,-0.8073558807373047,-1.7871696949005127
1718292468142251300,47.202251220703126,-0.08643525838851929,-1.1227818727493286,-2.239314556121826
1718292468192022000,47.25202197265625,0.42479974031448364,-1.4993400573730469,-2.8147644996643066
1718292468241792000,47.3017919921875,0.6809425950050354,-0.5091471672058105,-3.1278061866760254
1718292468291562000,47.35156201171875,0.7725188136100769,-0.5924353003501892,-3.1971280574798584
1718292468341332000,47.40133203125,0.30139777064323425,-0.904595673084259,-2.224334716796875
1718292468391102000,47.45110205078125,0.3821861743927002,-0.7471628785133362,-1.2017226219177246
1718292468440872000,47.500871826171874,-0.19990721344947815,0.24053668975830078,0.4427731931209564
1718292468490642200,47.55064208984375,-0.21000775694847107,1.349666714668274,2.5178873538970947
1718292468540412000,47.60041186523438,-0.318787544965744,1.611642599105835,3.6237075328826904
1718292468590182100,47.65018212890625,-0.08710021525621414,0.3457103371620178,3.423722505569458
1718292468639952000,47.699951904296874,-0.6596831679344177,0.1689022332429886,3.153595447540283
1718292468689722000,47.74972216796875,-0.6489217877388,0.3581773042678833,2.775499105453491
1718292468739491800,47.79949194335938,-0.908149003982544,0.3972536027431488,2.164212942123413
1718292468789260800,47.8492607421875,-0.2952952980995178,-0.6723911762237549,-0.26067614555358887
1718292468839031000,47.89903100585938,0.00516437878832221,-0.3303864896297455,-1.1342889070510864
1718292468888800800,47.94880078125,-0.014385507442057133,-1.1091517210006714,-1.6984713077545166
1718292468938571000,47.998571044921874,0.15106479823589325,-1.4131094217300415,-2.4836947917938232
1718292468988340700,48.0483408203125,0.8104737997055054,-0.8256241083145142,-3.676145076751709
1718292469038111000,48.09811108398438,0.799541711807251,-0.04362557455897331,-3.0115318298339844
1718292469087881200,48.14788110351562,0.8929060697555542,-0.9341058731079102,-2.9731085300445557
1718292469137651000,48.19765087890625,0.582822859287262,-0.9888486266136169,-2.132189989089966
1718292469187421400,48.24742138671875,0.2759931981563568,-0.38741591572761536,-0.8907407522201538
1718292469237191200,48.29719116210938,-0.2705287039279938,0.9131575226783752,1.1916309595108032
1718292469286961400,48.34696142578125,-0.799505352973938,1.4842119216918945,3.0454046726226807
1718292469336731100,48.396731201171875,-0.8351367712020874,1.737168788909912,3.6864688396453857
1718292469386501400,48.44650146484375,-0.33873865008354187,0.3907245099544525,3.324526786804199
1718292469436271000,48.49627099609375,-0.4350404143333435,0.033330172300338745,2.800485134124756
1718292469486041300,48.54604125976562,-0.7985772490501404,0.3908286690711975,2.447845697402954
1718292469535811000,48.59581103515625,-0.30797338485717773,0.04338359460234642,0.788295567035675
1718292469585581300,48.64558129882813,-0.12415821850299835,-0.3990428149700165,-0.7349860668182373
1718292469635351300,48.69535131835938,0.04198000580072403,-0.7708402276039124,-1.7549231052398682
1718292469685121300,48.74512133789062,-0.033407486975193024,-1.3352997303009033,-2.536156415939331
1718292469734891300,48.794891357421875,0.4736890196800232,-0.7755835056304932,-2.915785789489746
1718292469784661200,48.8446611328125,1.0941566228866577,-0.3630184531211853,-3.909327745437622
1718292469834431200,48.89443115234375,0.40565094351768494,-0.8141890168190002,-2.7761497497558594
1718292469884201200,48.944201171875,0.04745374619960785,-0.7871637940406799,-2.145017147064209
1718292469933971200,48.99397119140625,-0.12719495594501495,-0.32866594195365906,-1.0013080835342407
1718292469983740400,49.04374047851562,-0.5178400278091431,0.6265475153923035,0.7666014432907104
1718292470033510100,49.09351025390625,-0.6669705510139465,1.0630666017532349,1.6362552642822266
1718292470083280400,49.1432802734375,-0.5523546934127808,0.9252265691757202,1.5781290531158447
1718292470133050000,49.19305004882813,-0.3571317195892334,0.6274585723876953,1.6300891637802124
1718292470182819800,49.24281982421875,-0.16443856060504913,0.9063985347747803,1.9001693725585938
1718292470232589800,49.29258984375,-0.14204032719135284,0.7808111906051636,1.7966501712799072
1718292470282359800,49.34235986328125,-0.17515891790390015,0.6648669838905334,1.7783805131912231
1718292470332129800,49.3921298828125,0.09431106597185135,0.31805235147476196,1.375389814376831
1718292470381899800,49.44189965820313,-0.038458433002233505,0.4070698916912079,1.2329237461090088
1718292470431669800,49.49166967773437,0.05887700989842415,0.2286907285451889,0.8412286043167114
1718292470481439700,49.54143969726562,0.292263001203537,0.0372648723423481,0.4550500214099884
1718292470531209700,49.591209716796875,0.2040400356054306,0.29176822304725647,0.2069069743156433
1718292470580979700,49.64097973632813,0.1859820932149887,0.10126296430826187,0.013415539637207985
1718292470630749700,49.69074975585937,0.10008499771356583,0.25543680787086487,0.08143554627895355
1718292470680519000,49.74051879882813,-0.025087300688028336,0.13217110931873322,-0.2242356240749359
1718292470730288600,49.79028857421875,-0.03071625530719757,0.1625886708498001,-0.12765151262283325
1718292470780059000,49.84005883789062,-0.09073393046855927,0.2057420164346695,0.03866741806268692
1718292470829828900,49.889828857421875,-0.08198399096727371,-0.13815736770629883,0.10056716948747635
1718292470879598800,49.93959887695313,0.19493350386619568,0.08487706631422043,0.16188383102416992
1718292470929368800,49.98936889648437,0.25647321343421936,0.1713133156299591,0.21979480981826782
1718292470979138800,50.039138916015624,0.3031465411186218,-0.007936439476907253,0.18632851541042328
1718292471028908800,50.08890869140625,0.21776710450649261,0.051557037979364395,0.23249004781246185
1718292471078678800,50.1386787109375,0.2435343712568283,-0.02636256068944931,0.21590568125247955
1718292471128448800,50.18844873046875,0.22038894891738892,-0.009138183668255806,0.167197585105896
1718292471178219000,50.238218994140624,0.2800762355327606,0.18448276817798615,0.15332870185375214
1718292471227989000,50.287989013671876,0.25903573632240295,0.029725639149546623,0.24683724343776703
1718292471277758200,50.33775830078125,0.10506621748209,0.026885202154517174,0.45486199855804443
1718292471327528000,50.38752783203125,0.7295858860015869,-0.6037465929985046,-0.07306119054555893
1718292471377298200,50.43729809570313,-0.17775070667266846,0.9396283030509949,0.3760652244091034
1718292471427068000,50.48706787109375,0.22387944161891937,-0.20072925090789795,0.07342343032360077
1718292471476838100,50.536838134765624,-0.12632186710834503,-0.12028765678405762,0.2644146978855133
1718292471526608000,50.58660791015625,0.1387026160955429,-0.354616641998291,-0.17579396069049835
1718292471576378000,50.63637817382813,0.34896329045295715,0.5389753580093384,0.2721121609210968
1718292471626148000,50.68614819335937,0.0729302242398262,0.5217494368553162,1.1319843530654907
1718292471675918000,50.73591796875,0.5319808125495911,-1.8173335790634155,-1.6353130340576172
1718292471725688000,50.78568798828125,-0.7615185976028442,-0.4321119785308838,0.36750516295433044
1718292471775458000,50.8354580078125,-0.6190797686576843,-0.8852687478065491,0.13260707259178162
1718292471825228000,50.88522802734375,-0.583085298538208,-0.7750682830810547,-0.0782770961523056
1718292471874997200,50.93499731445313,-0.42707526683807373,0.2648930847644806,-0.6610336899757385
1718292471924767000,50.98476708984375,-0.38443106412887573,-0.04770128056406975,-0.12357784062623978
1718292471974537200,51.034537109375,-0.4961603581905365,-0.419059157371521,-0.22011923789978027
1718292472024307000,51.084306884765624,-0.3797753155231476,-0.2378385365009308,-0.12399622052907944
1718292472074077200,51.1340771484375,-0.40428516268730164,-0.36709916591644287,-0.04947948083281517
1718292472123847000,51.18384692382813,-0.49218276143074036,-0.24357816576957703,-0.10750476270914078
1718292472173617200,51.2336171875,-0.5830149054527283,-0.1509578973054886,-0.028731010854244232
1718292472223387100,51.28338720703125,-0.6836775541305542,0.026927663013339043,0.42401012778282166
1718292472273157000,51.3331572265625,-0.3500160872936249,0.22945314645767212,0.4555223882198334
1718292472322927400,51.38292724609375,-0.20603027939796448,0.46301954984664917,0.4422486424446106
1718292472372697000,51.43269702148437,-0.09718086570501328,0.3258330523967743,0.038071244955062866
1718292472422466300,51.48246630859375,-0.17734111845493317,0.14441126585006714,-0.11919012665748596
1718292472472236000,51.53223608398437,0.04368356987833977,0.022846102714538574,-0.4743613004684448
1718292472522006300,51.58200634765625,0.31970274448394775,0.2134166955947876,-0.7785341739654541
1718292472571776300,51.6317763671875,0.40184691548347473,0.12755520641803741,-1.2299402952194214
1718292472621546200,51.68154614257813,0.5216418504714966,-0.3745381534099579,-1.9149420261383057
1718292472671316200,51.73131616210937,0.6465867757797241,-0.41806796193122864,-2.1191842555999756
1718292472721086200,51.781086181640624,0.6103936433792114,-0.5173505544662476,-2.224191665649414
1718292472770856200,51.830856201171876,0.911801278591156,-0.492831826210022,-2.265021562576294
1718292472820626200,51.88062622070313,1.3152905702590942,-0.8002195954322815,-2.7194507122039795
1718292472870396200,51.93039624023437,0.8074939250946045,-0.8298394680023193,-1.947288155555725
1718292472920166100,51.980166259765625,0.692622184753418,-0.16408687829971313,-1.0892157554626465
1718292472969935000,52.02993505859375,0.09008515626192093,-0.041948601603507996,-0.024666333571076393
1718292473019705300,52.079705322265625,-0.08450834453105927,0.5765231251716614,1.2063974142074585
1718292473069475000,52.12947509765625,-0.5592527389526367,1.520165205001831,2.4741406440734863
1718292473119245300,52.17924536132813,-0.7149869799613953,0.9936518669128418,2.9467408657073975
1718292473169015300,52.22901538085937,-0.11209744215011597,0.36057597398757935,3.4057815074920654
1718292473218784300,52.2787841796875,0.18667371571063995,0.5026876330375671,3.195373296737671
1718292473268554200,52.32855419921875,-0.25936901569366455,0.43640321493148804,2.7684333324432373
1718292473318324200,52.37832421875,-0.15531302988529205,0.6020914912223816,1.4238225221633911
1718292473368094200,52.42809423828125,0.07363423705101013,-0.07890915125608444,0.007030131295323372
1718292473417864400,52.47786450195313,0.2649039924144745,-0.6922659277915955,-1.0123238563537598
1718292473467633200,52.527633056640624,0.5549978613853455,-0.6833844780921936,-1.943248987197876
1718292473517403400,52.5774033203125,0.7046007513999939,-1.4374579191207886,-2.788578987121582
1718292473567173000,52.62717309570313,0.5222867131233215,-0.8891420364379883,-3.0386762619018555
1718292473616943400,52.676943359375,0.6913149952888489,-0.6447995901107788,-2.7761621475219727
1718292473666713300,52.72671337890625,0.9080729484558105,-1.1939805746078491,-3.6066765785217285
1718292473716483300,52.7764833984375,-0.17076128721237183,-0.6955999732017517,-2.592755079269409
1718292473766253300,52.82625341796875,-0.11827500909566879,-0.5834147334098816,-1.0812244415283203
1718292473816023300,52.87602319335937,-0.6377242803573608,0.3861309885978699,0.13944680988788605
1718292473865793300,52.925793212890625,-1.0315757989883423,0.9767295718193054,2.3909571170806885
1718292473915563300,52.97556323242188,-1.0691739320755005,1.6873667240142822,3.3309314250946045
1718292473965333200,53.02533325195313,-0.933345377445221,0.3741670548915863,3.5085277557373047
1718292474015103200,53.07510327148437,-0.4895073175430298,0.37728533148765564,2.941396951675415
1718292474064872200,53.1248720703125,-0.7035450339317322,-0.3882906436920166,2.6414456367492676
1718292474114642400,53.17464233398437,-0.8213106393814087,0.30074572563171387,1.9778764247894287
1718292474164412200,53.224412109375,-0.3413568437099457,-0.6426317095756531,0.2966991066932678
1718292474214183200,53.27418310546875,-0.04573304206132889,-0.4256431460380554,-1.0817927122116089
1718292474263953000,53.32395288085937,0.17414242029190063,-0.28758132457733154,-1.7718347311019897
1718292474313723100,53.37372314453125,-0.037679582834243774,-1.4299671649932861,-2.262512445449829
1718292474363492900,53.42349291992188,0.15934935212135315,-0.20399941504001617,-2.3128466606140137
1718292474413263000,53.47326318359375,0.5225051641464233,-0.9225399494171143,-3.5415163040161133
1718292474463033000,53.523033203125,0.706002414226532,-0.4056861400604248,-2.872143507003784
1718292474512803000,53.572802978515625,0.5390474796295166,-0.5770923495292664,-2.473585605621338
1718292474562572000,53.62257202148437,0.108857661485672,-0.4194515645503998,-1.2702596187591553
1718292474612342000,53.672342041015625,0.015420778654515743,0.4050879180431366,0.06851863116025925
1718292474662112000,53.72211206054688,-0.37557166814804077,1.1240664720535278,2.0206634998321533
1718292474711882200,53.77188232421875,-0.15494194626808167,1.491919994354248,3.0087666511535645
1718292474761652000,53.82165185546875,-0.25927162170410156,1.2559335231781006,3.490844249725342
1718292474811422200,53.871422119140625,0.17676343023777008,0.4189986288547516,3.1406843662261963
1718292474861192000,53.92119189453125,-0.28859132528305054,0.09357795119285583,3.0573172569274902
1718292474910962200,53.97096215820312,-0.7531420588493347,0.47357457876205444,2.409881591796875
1718292474960732000,54.02073193359375,-0.4821711778640747,-0.08901488780975342,0.8112221360206604
1718292475010502100,54.070502197265625,0.17530375719070435,-0.2804872691631317,-0.9874604940414429
1718292475060271000,54.12027099609375,0.24512173235416412,-0.028426969423890114,-1.548092246055603
1718292475110041000,54.170041015625,-0.01981709897518158,-1.868586778640747,-1.9124919176101685
1718292475159811000,54.21981103515625,0.5564524531364441,-0.4841306805610657,-2.5859322547912598
1718292475209580800,54.26958081054688,0.6535571217536926,-0.9859995245933533,-3.064702272415161
1718292475259350800,54.31935083007812,1.019809365272522,-0.6151916980743408,-3.3961853981018066
1718292475309120800,54.369120849609374,0.5981215834617615,-1.407517433166504,-2.876167058944702
1718292475358890800,54.418890869140625,0.2599388062953949,-0.8349623680114746,-1.9189523458480835
1718292475408661000,54.46866088867188,-0.08865118771791458,0.17874100804328918,-0.06208076328039169
1718292475458430700,54.5184306640625,-0.13197533786296844,1.1775952577590942,1.5947434902191162
1718292475508201000,54.568200927734374,-0.4579848349094391,1.360337257385254,3.1510212421417236
1718292475557970000,54.61796997070312,-0.7210738658905029,1.39597487449646,3.549860715866089
1718292475607740000,54.667739990234374,-0.5882272124290466,0.4710206687450409,3.6399388313293457
1718292475657510000,54.717510009765626,-0.6445223093032837,-0.30869632959365845,2.984116792678833
1718292475707280000,54.76727978515625,-1.0843193531036377,0.16583719849586487,2.8028783798217773
1718292475757049900,54.8170498046875,-0.7829660177230835,-0.07449256628751755,1.0837457180023193
1718292475806819800,54.86681982421875,-0.2422313094139099,-0.6226622462272644,-0.805275559425354
1718292475856589800,54.91658984375,0.07517866790294647,-0.23250122368335724,-1.621644139289856
1718292475906359800,54.96635986328125,0.07000654190778732,-1.431420087814331,-1.9463742971420288
1718292475956129800,55.0161298828125,0.5836057662963867,-0.7286355495452881,-2.8913869857788086
1718292476005900000,55.065900146484374,0.7796415686607361,-0.7271980047225952,-3.1101741790771484
1718292476055668700,55.11566870117188,1.4067529439926147,-0.1678534895181656,-3.3204500675201416
1718292476105439000,55.16543896484375,0.8976971507072449,-0.7527609467506409,-2.0761663913726807
1718292476155208700,55.215208740234374,0.6505961418151855,-0.18935145437717438,-1.5204063653945923
1718292476204978400,55.264978515625,0.1917130947113037,0.729946494102478,0.07237289845943451
1718292476254748400,55.31474853515625,-0.2075374275445938,1.1968870162963867,1.959784984588623
1718292476304518400,55.36451831054688,-0.4508189558982849,1.7619264125823975,3.5889923572540283
1718292476354288400,55.41428833007812,-0.10198461264371872,1.3931686878204346,3.7178618907928467
1718292476404058400,55.464058349609374,0.06683922559022903,-0.2408268004655838,3.6265652179718018
1718292476453828400,55.513828369140626,-0.029764574021100998,0.9167457222938538,3.154128074645996
1718292476503597600,55.56359765625,0.04790335148572922,1.0503464937210083,2.106414556503296
1718292476553367300,55.6133671875,0.23373034596443176,-0.16537614166736603,-0.3211449086666107
1718292476603137500,55.66313745117188,0.4505121409893036,-0.16637970507144928,-1.0359649658203125
1718292476652907300,55.7129072265625,0.5525105595588684,-0.34941092133522034,-1.8870850801467896
1718292476702677500,55.762677490234374,0.5769281387329102,-1.302131175994873,-2.8445162773132324
1718292476752447500,55.812447509765626,0.6132564544677734,-1.4031068086624146,-2.9625463485717773
1718292476802217500,55.86221752929688,1.1749577522277832,-0.707282304763794,-3.5968334674835205
1718292476851987500,55.91198754882812,0.7740811109542847,-1.5759162902832031,-3.35180926322937
1718292476901757400,55.96175732421875,0.5157808065414429,-1.3632895946502686,-2.5731117725372314
1718292476951526400,56.0115263671875,0.17097879946231842,-0.7201802730560303,-0.7637642621994019
1718292477001296600,56.061296630859374,-0.6463062167167664,0.6401709914207458,1.3473063707351685
1718292477051066400,56.11106640625,-0.9749787449836731,1.3581949472427368,2.9670019149780273
1718292477100836600,56.16083666992188,-1.5235174894332886,1.5321096181869507,3.5051090717315674
1718292477150606300,56.2106064453125,-1.2808399200439453,0.05127796530723572,3.6751952171325684
1718292477200377000,56.260377197265626,-0.9242570996284485,-0.0024760474916547537,3.3325822353363037
1718292477250146800,56.310146728515626,-0.9724895358085632,0.5182428359985352,2.307372570037842
1718292477299917000,56.3599169921875,-0.26277029514312744,-0.9463118314743042,-0.04178229719400406
1718292477349686800,56.40968676757812,-0.09836861491203308,-0.6906241178512573,-0.8460811376571655
1718292477399456000,56.4594560546875,0.1626027226448059,-0.6777946949005127,-1.9627348184585571
1718292477449226000,56.50922607421875,0.520124614238739,-1.1862918138504028,-3.0809102058410645
1718292477498996000,56.558995849609374,0.3070421814918518,-0.4721703827381134,-2.9484188556671143
1718292477548766000,56.608765869140626,0.49685031175613403,-0.5096713900566101,-3.621455669403076
1718292477598536000,56.65853588867188,0.508049726486206,-1.4543122053146362,-3.1386725902557373
1718292477648306000,56.70830590820312,0.33395734429359436,-0.5047966837882996,-2.030238389968872
1718292477698076000,56.758075927734374,-0.19205833971500397,0.011262393556535244,-0.38873329758644104
1718292477747846000,56.807845947265626,-0.46782270073890686,1.2325772047042847,2.063992977142334
1718292477797616000,56.8576162109375,-0.8150743842124939,1.7146716117858887,3.6603851318359375
1718292477847384800,56.907384765625,-0.6278078556060791,1.0702824592590332,3.787313222885132
1718292477897155000,56.95715502929688,-0.6353442072868347,0.539195716381073,3.4844677448272705
1718292477946924800,57.0069248046875,-0.5618078112602234,0.1855856478214264,3.3233351707458496
1718292477996695000,57.056695068359375,-0.47352662682533264,1.0624396800994873,1.9516897201538086
1718292478046465000,57.106465087890626,-0.18804004788398743,-0.42884811758995056,-0.13570536673069
1718292478096235000,57.15623510742188,0.2736242115497589,-0.6771168112754822,-1.1341900825500488
1718292478146005000,57.2060048828125,0.5396918058395386,-0.6690664291381836,-2.131772756576538
1718292478195774200,57.25577416992188,0.59016352891922,-1.2562189102172852,-2.7065114974975586
1718292478245543400,57.30554345703125,0.6922540664672852,-0.26647964119911194,-3.378899335861206
1718292478295313400,57.3553134765625,0.7512160539627075,-0.7999266982078552,-3.63861346244812
1718292478345083400,57.40508349609375,0.8767845630645752,-1.0194493532180786,-3.0810465812683105
1718292478394853400,57.454853271484374,0.15912772715091705,-0.8704919815063477,-1.6830631494522095
1718292478444623400,57.504623291015626,-0.09421581774950027,0.21225063502788544,0.41291728615760803
1718292478494393300,57.55439331054688,-0.3200031518936157,0.8334742188453674,1.4412434101104736
1718292478544163600,57.60416357421875,-0.7233189940452576,0.7156416773796082,1.7868249416351318
1718292478593933300,57.653933349609375,-0.5013468265533447,0.2984456717967987,1.531606674194336
1718292478643702500,57.70370263671875,-0.6211946606636047,0.6368122696876526,1.4685616493225098
1718292478693472500,57.753472412109375,-0.3926074802875519,0.5309997200965881,1.1650969982147217
1718292478743242500,57.803242431640626,-0.6341251134872437,0.3755440413951874,1.515270709991455
1718292478793012500,57.85301245117188,-0.6048757433891296,0.44183775782585144,1.067400336265564
1718292478842782500,57.90278247070312,-0.32826000452041626,0.01000860147178173,0.7170429825782776
1718292478892552400,57.952552490234375,-0.30859509110450745,0.4522262513637543,0.9110512733459473
1718292478942322400,58.00232250976563,-0.3831213116645813,0.3109654188156128,0.37009158730506897
1718292478992092400,58.05209252929688,-0.059942688792943954,0.148167684674263,0.5521215200424194
1718292479041862400,58.1018623046875,0.36508017778396606,0.19780880212783813,0.47516903281211853
1718292479091631400,58.15163134765625,0.3593086302280426,0.24723835289478302,0.4050256907939911
1718292479141401600,58.20140161132812,0.26939526200294495,-0.24895039200782776,0.2267724573612213
1718292479191171800,58.251171875,-0.17563164234161377,0.2087216079235077,0.6824515461921692
1718292479240942000,58.30094213867188,-0.25751993060112,-0.2507721185684204,0.34442245960235596
1718292479290711800,58.3507119140625,-0.21764948964118958,-0.16521447896957397,0.047986727207899094
1718292479340482000,58.40048193359375,-0.23325495421886444,0.6351511478424072,0.15226860344409943
1718292479390251800,58.450251708984375,0.054404646158218384,-0.10857835412025452,0.06700211763381958
1718292479440022000,58.50002197265625,-0.004749654326587915,-0.03271537274122238,0.04972795397043228
1718292479489791000,58.549791015625,0.39875495433807373,0.15966366231441498,-0.0016950233839452267
1718292479539561000,58.59956103515625,-0.009693280793726444,-0.20088760554790497,0.048603568226099014
1718292479589331000,58.6493310546875,-0.057733941823244095,0.07866977900266647,0.06987500935792923
1718292479639101000,58.69910083007812,-0.27697280049324036,-0.09955432265996933,0.2344151884317398
1718292479688871000,58.748870849609375,-0.07397245615720749,0.12840713560581207,-0.19084978103637695
1718292479738641000,58.79864086914063,0.12955860793590546,-0.2227734625339508,-0.24467572569847107
1718292479788411000,58.84841088867187,0.11633513867855072,-0.0929180383682251,-0.19325803220272064
1718292479838181000,58.89818115234375,-0.13505049049854279,0.1448826789855957,0.2639239728450775
1718292479887949800,58.94794970703125,0.05019284412264824,0.039089422672986984,0.018422476947307587
1718292479937719800,58.9977197265625,-0.027542246505618095,0.2920501232147217,0.2670242488384247
1718292479987490000,59.047489990234375,0.10937534272670746,-0.2848256826400757,-0.16748322546482086
1718292480037259800,59.097259765625,-0.07358155399560928,-0.2602482736110687,-0.22537925839424133
1718292480087030000,59.14703002929687,-0.09536620229482651,-0.17815954983234406,0.11215467751026154
1718292480136799700,59.1967998046875,-0.17652057111263275,0.0967714786529541,0.19232794642448425
1718292480186569200,59.2465693359375,-0.0013012710260227323,0.36704468727111816,-0.12182262539863586
1718292480236338200,59.29633813476563,0.037423547357320786,0.22134056687355042,-0.05520669370889664
1718292480286108000,59.34610791015625,0.0416073314845562,-0.4829387366771698,-0.21998441219329834
1718292480335878100,59.39587817382812,-0.3563739061355591,-0.41287916898727417,-0.08198163658380508
1718292480385648000,59.445648193359375,-0.04950559884309769,-0.11142529547214508,0.07778063416481018
1718292480435418000,59.49541821289063,-0.1836973875761032,0.1921432763338089,0.2948060631752014
1718292480485188000,59.54518798828125,0.14260882139205933,0.30114656686782837,-0.11592178046703339
1718292480534958000,59.5949580078125,-0.05817026644945145,0.014155194163322449,-0.014746909961104393
1718292480584728000,59.64472802734375,-0.008588681928813457,-0.23847231268882751,-0.11306972801685333
1718292480634497300,59.69449731445312,-0.10270186513662338,0.1918240785598755,0.12521147727966309
1718292480684267000,59.74426708984375,-0.05070534348487854,-0.2479417324066162,-0.09552692621946335
1718292480734037200,59.79403735351563,-0.1835738569498062,0.35233524441719055,0.2786172032356262
1718292480783807000,59.84380688476563,0.07062579691410065,-0.16218148171901703,-0.16311481595039368
1718292480833577200,59.8935771484375,0.12299605458974838,0.18484251201152802,-0.07191459089517593
1718292480883347000,59.94334692382812,0.27702784538269043,0.04170970618724823,0.13056926429271698
1718292480933117200,59.9931171875,0.14361749589443207,0.16496196389198303,-0.048496801406145096
1718292480982886100,60.04288623046875,-0.07584000378847122,-0.04980640858411789,0.13851694762706757
1718292481032656100,60.09265625,-0.057252414524555206,0.18391188979148865,0.22173914313316345
1718292481082426000,60.14242602539063,-0.06920376420021057,-0.17983834445476532,0.13440139591693878
1718292481132196000,60.19219604492187,0.5139546394348145,-0.2967194616794586,-0.24633941054344177
1718292481181966600,60.241966552734375,-0.17989063262939453,-0.028351860120892525,0.6787735223770142
1718292481231736300,60.291736328125,0.18478363752365112,-0.0343080572783947,0.5803720951080322
1718292481281506600,60.34150659179687,-0.2515762150287628,-0.08553504198789597,0.718004047870636
1718292481331276500,60.391276611328124,-0.05791390314698219,-0.2525504231452942,0.31160253286361694
1718292481381045200,60.44104516601563,0.10496572405099869,-0.2770339846611023,-0.38278526067733765
1718292481430815500,60.4908154296875,0.27914947271347046,-0.5187982320785522,-1.207231879234314
1718292481480585200,60.54058520507812,0.4220912456512451,-0.061114486306905746,-1.4197108745574951
1718292481530355500,60.59035546875,0.35766029357910156,-0.9316785335540771,-2.5013368129730225
1718292481580125400,60.64012548828125,0.5874868631362915,-0.03418463096022606,-2.358996868133545
1718292481629895400,60.6898955078125,0.7960177659988403,-0.996526300907135,-3.0948410034179688
1718292481679665400,60.73966552734375,1.046023964881897,-1.003320336341858,-3.138446569442749
1718292481729434400,60.78943432617187,0.755400538444519,-1.021004557609558,-2.549872636795044
1718292481779204400,60.83920434570312,0.35006093978881836,-0.5330803990364075,-1.5819787979125977
1718292481828974600,60.888974609375,-0.42347967624664307,0.5127288699150085,0.9265664219856262
1718292481878744300,60.93874438476563,-0.54144686460495,1.589005708694458,2.3417952060699463
1718292481928514600,60.9885146484375,-0.7834765315055847,0.9870193004608154,3.1591715812683105
1718292481978284300,61.0382841796875,-0.686907947063446,0.2616386115550995,3.35833740234375
1718292482028054500,61.088054443359376,-0.6583667397499084,0.34771454334259033,3.3761394023895264
1718292482077823500,61.137823486328124,-0.5207264423370361,0.8261488676071167,3.144698143005371
1718292482127593500,61.187593505859375,-0.5839515328407288,-0.22232919931411743,1.545233130455017
1718292482177363500,61.23736352539063,0.07630545645952225,0.4515441656112671,0.11096706986427307
