time,seconds_elapsed,z,y,x
1718311088620892200,0.01889208984375,-1.0966339111328125,-0.1639404296875,0.02197265625
1718311088670665200,0.068665283203125,-1.05010986328125,-0.029815673828125,0.1432037353515625
1718311088720438800,0.118438720703125,-1.3693084716796875,-0.0507354736328125,-0.058197021484375
1718311088770211600,0.168211669921875,-1.0501251220703125,-0.3539276123046875,0.130218505859375
1718311088819984600,0.217984619140625,-0.901641845703125,-0.3082275390625,-0.08160400390625
1718311088869757700,0.2677578125,-0.9568939208984375,-0.1527099609375,0.081939697265625
1718311088919530800,0.31753076171875,-0.47906494140625,-0.563232421875,0.3622894287109375
1718311088969303600,0.367303466796875,-0.696807861328125,-0.540374755859375,-0.0019683837890625
1718311089019076600,0.41707666015625,-0.7498016357421875,-0.594085693359375,-0.2034149169921875
1718311089068850000,0.466849853515625,-1.053619384765625,-0.3931732177734375,-0.103729248046875
1718311089118622700,0.516622802734375,-0.7875518798828125,-0.481964111328125,-0.1458282470703125
1718311089168395800,0.566395751953125,-0.826812744140625,-0.475555419921875,-0.080322265625
1718311089218168800,0.6161689453125,-0.7230377197265625,-0.5765838623046875,-0.1365509033203125
1718311089267941600,0.665941650390625,-0.9576263427734375,-0.495635986328125,-0.0921783447265625
1718311089317715700,0.7157158203125,-0.790069580078125,-0.52276611328125,-0.0894927978515625
1718311089367488500,0.765488525390625,-0.67999267578125,-0.501861572265625,-0.0555419921875
1718311089417261600,0.815261474609375,-0.7937469482421875,-0.570159912109375,-0.254974365234375
1718311089467034600,0.86503466796875,-0.755279541015625,-0.49639892578125,-0.1439056396484375
1718311089516807700,0.9148076171875,-0.9630279541015625,-0.45831298828125,-0.026123046875
1718311089566580700,0.964580810546875,-1.1153564453125,-0.38494873046875,-0.0919189453125
1718311089616353800,1.014353759765625,-0.79815673828125,-0.4631195068359375,-0.096343994140625
1718311089666126800,1.064126953125,-0.854644775390625,-0.4655303955078125,-0.1265716552734375
1718311089715899400,1.1138994140625,-0.9254302978515625,-0.4249267578125,-0.074981689453125
1718311089765672400,1.16367236328125,-0.90179443359375,-0.420166015625,-0.034271240234375
1718311089815446300,1.2134462890625,-0.8784332275390625,-0.4157257080078125,-0.0393218994140625
1718311089865219600,1.263219482421875,-0.6810760498046875,-0.417816162109375,0.0933685302734375
1718311089914992600,1.31299267578125,-1.0755767822265625,-0.4523468017578125,-0.18701171875
1718311089964765400,1.362765380859375,-0.74078369140625,-0.3650970458984375,0.103240966796875
1718311090014538500,1.41253857421875,-1.0311279296875,-0.386016845703125,-0.10009765625
1718311090064311600,1.4623115234375,-0.815704345703125,-0.3780364990234375,-0.009552001953125
1718311090114084600,1.512084716796875,-1.0165252685546875,-0.4319000244140625,-0.1588287353515625
1718311090163857400,1.561857421875,-0.73773193359375,-0.3843994140625,0.008941650390625
1718311090213630500,1.61163037109375,-0.987762451171875,-0.4390869140625,-0.0927276611328125
1718311090263404300,1.661404296875,-1.08392333984375,-0.4172821044921875,-0.090423583984375
1718311090313177600,1.711177490234375,-0.644805908203125,-0.4983062744140625,-0.1419525146484375
1718311090362950700,1.76095068359375,-0.7289581298828125,-0.546661376953125,-0.3467864990234375
1718311090412723500,1.810723388671875,-0.906890869140625,-0.4828338623046875,-0.101806640625
1718311090462496500,1.86049658203125,-0.7597808837890625,-0.467498779296875,-0.0653076171875
1718311090512269600,1.91026953125,-1.014007568359375,-0.376495361328125,-0.1056671142578125
1718311090562042400,1.96004248046875,-0.9032135009765625,-0.54034423828125,-0.336517333984375
1718311090611815400,2.0098154296875,-0.831573486328125,-0.5013275146484375,-0.260467529296875
1718311090661588500,2.05958837890625,-0.870513916015625,-0.4264068603515625,-0.0929718017578125
1718311090711361500,2.109361572265625,-0.9692230224609375,-0.377685546875,-0.088653564453125
1718311090761135900,2.159135986328125,-0.95355224609375,-0.389495849609375,-0.1085205078125
1718311090810908700,2.20890869140625,-0.8171234130859375,-0.3800506591796875,-0.1254425048828125
1718311090860681700,2.258681640625,-0.8825836181640625,-0.355316162109375,-0.0851593017578125
1718311090910454800,2.308454833984375,-0.9979400634765625,-0.3979339599609375,-0.1889495849609375
1718311090960227800,2.358227783203125,-0.91094970703125,-0.3472442626953125,-0.0585784912109375
1718311091010000600,2.408000732421875,-0.9781494140625,-0.324310302734375,0.0133209228515625
1718311091059773700,2.457773681640625,-0.9105072021484375,-0.3939361572265625,-0.1351776123046875
1718311091109546800,2.507546630859375,-0.905364990234375,-0.3406982421875,-0.0491485595703125
1718311091159319600,2.557319580078125,-0.9610748291015625,-0.3568267822265625,-0.107391357421875
1718311091209094000,2.607093994140625,-0.8896331787109375,-0.326263427734375,-0.054046630859375
1718311091258866700,2.65686669921875,-0.941864013671875,-0.320465087890625,-0.0498504638671875
1718311091308639700,2.7066396484375,-0.94854736328125,-0.3480072021484375,-0.1302642822265625
1718311091358412800,2.756412841796875,-0.93853759765625,-0.35430908203125,-0.1479034423828125
1718311091408185600,2.806185546875,-0.9168548583984375,-0.3236541748046875,-0.083160400390625
1718311091457958700,2.855958740234375,-0.971771240234375,-0.3466033935546875,-0.175445556640625
1718311091507731700,2.905731689453125,-0.8817596435546875,-0.336273193359375,-0.1014251708984375
1718311091557504800,2.9555048828125,-0.91961669921875,-0.3132476806640625,-0.08642578125
1718311091607277600,3.005277587890625,-1.0467071533203125,-0.2631988525390625,-0.0406494140625
1718311091657052000,3.055052001953125,-0.9403839111328125,-0.3383331298828125,-0.106903076171875
1718311091706824400,3.104824462890625,-0.919952392578125,-0.3608551025390625,-0.1553802490234375
1718311091756597500,3.154597412109375,-0.8887176513671875,-0.34747314453125,-0.06109619140625
1718311091806370600,3.20437060546875,-0.9776611328125,-0.3528900146484375,-0.1524505615234375
1718311091856143400,3.254143310546875,-0.8499755859375,-0.3809661865234375,-0.1666259765625
1718311091905916400,3.30391650390625,-0.821136474609375,-0.360107421875,-0.1229400634765625
1718311091955689700,3.353689697265625,-1.0084075927734375,-0.4235687255859375,-0.231658935546875
1718311092005462500,3.403462646484375,-0.85150146484375,-0.36822509765625,-0.1329498291015625
1718311092055235600,3.453235595703125,-0.9216156005859375,-0.3837127685546875,-0.13897705078125
1718311092105008600,3.503008544921875,-0.9035186767578125,-0.3760528564453125,-0.1371612548828125
1718311092154782500,3.552782470703125,-0.952362060546875,-0.32550048828125,-0.0558624267578125
1718311092204555500,3.602555419921875,-0.865020751953125,-0.3647918701171875,-0.10614013671875
1718311092254328600,3.65232861328125,-0.93743896484375,-0.3546295166015625,-0.1466064453125
1718311092304101400,3.702101318359375,-0.9412384033203125,-0.3469696044921875,-0.11737060546875
1718311092353874700,3.751874755859375,-0.9292449951171875,-0.3700714111328125,-0.14337158203125
1718311092403647700,3.801647705078125,-0.8957061767578125,-0.334808349609375,-0.0574493408203125
1718311092453420500,3.851420654296875,-0.955810546875,-0.3547821044921875,-0.12451171875
1718311092503193600,3.901193603515625,-0.8792724609375,-0.3328094482421875,-0.034210205078125
1718311092552967400,3.950967529296875,-0.889495849609375,-0.3539581298828125,-0.0886688232421875
1718311092602740500,4.000740478515625,-0.900238037109375,-0.3439483642578125,-0.0673980712890625
1718311092652513500,4.050513427734375,-0.9987335205078125,-0.3051605224609375,-0.05657958984375
1718311092702286800,4.100286865234375,-0.981170654296875,-0.375091552734375,-0.1510162353515625
1718311092752059600,4.1500595703125,-0.9357147216796875,-0.3314056396484375,-0.097625732421875
1718311092801832700,4.199832763671875,-0.9223785400390625,-0.31195068359375,-0.0872955322265625
1718311092851605800,4.249605712890625,-0.9164886474609375,-0.3463592529296875,-0.1171417236328125
1718311092901378600,4.299378662109375,-0.9210357666015625,-0.320770263671875,-0.0835723876953125
1718311092951151900,4.34915185546875,-0.9414825439453125,-0.348297119140625,-0.1134033203125
1718311093000925000,4.398925048828125,-0.8954620361328125,-0.320648193359375,-0.085906982421875
1718311093050698800,4.44869873046875,-0.923431396484375,-0.33489990234375,-0.065155029296875
1718311093100471800,4.498471923828125,-0.9248046875,-0.311798095703125,-0.0902252197265625
1718311093150244600,4.54824462890625,-0.962158203125,-0.2916107177734375,-0.0714569091796875
1718311093200017700,4.598017578125,-0.9896240234375,-0.335174560546875,-0.166748046875
1718311093249790700,4.647790771484375,-0.9405364990234375,-0.3345794677734375,-0.0219573974609375
1718311093299563500,4.6975634765625,-0.8164520263671875,-0.4071044921875,0.0576629638671875
1718311093349336600,4.747336669921875,-0.738525390625,-0.299468994140625,0.081024169921875
1718311093399110000,4.79710986328125,-0.929412841796875,-0.502655029296875,-0.1717987060546875
1718311093448883000,4.846883056640625,-1.03369140625,-0.2265167236328125,-0.0550994873046875
1718311093498655700,4.89665576171875,-1.00579833984375,-0.251007080078125,-0.0867462158203125
1718311093548428800,4.9464287109375,-0.9474029541015625,-0.29595947265625,-0.07080078125
1718311093598202600,4.99620263671875,-0.9559783935546875,-0.3151397705078125,-0.0804901123046875
1718311093647975700,5.0459755859375,-0.8997802734375,-0.316497802734375,-0.0860443115234375
1718311093697748700,5.095748779296875,-1.0244903564453125,-0.346099853515625,-0.115753173828125
1718311093747521500,5.145521484375,-0.9409027099609375,-0.3354644775390625,-0.065155029296875
1718311093797294600,5.195294677734375,-0.9266815185546875,-0.3631439208984375,-0.1140594482421875
1718311093847067600,5.245067626953125,-0.86383056640625,-0.3358917236328125,-0.04681396484375
1718311093896840400,5.29484033203125,-0.9146270751953125,-0.319061279296875,-0.05657958984375
1718311093946613500,5.344613525390625,-0.8964080810546875,-0.33953857421875,-0.0557861328125
1718311093996386600,5.394386474609375,-0.9954681396484375,-0.3128662109375,-0.0495452880859375
1718311094046159600,5.44415966796875,-0.9509124755859375,-0.3187255859375,-0.0413665771484375
1718311094095932400,5.493932373046875,-0.9472198486328125,-0.3507843017578125,-0.0744171142578125
1718311094145705500,5.54370556640625,-0.88043212890625,-0.33258056640625,0.0142822265625
1718311094195478800,5.593478759765625,-0.945281982421875,-0.270416259765625,0.0001678466796875
1718311094245252600,5.643252685546875,-0.8945465087890625,-0.3301544189453125,-0.0283966064453125
1718311094295025700,5.693025634765625,-0.9782257080078125,-0.351287841796875,-0.1129150390625
1718311094344798500,5.742798583984375,-0.9095001220703125,-0.3956298828125,-0.1096954345703125
1718311094394571500,5.792571533203125,-0.8895721435546875,-0.400970458984375,-0.1399383544921875
1718311094444344600,5.842344482421875,-0.921661376953125,-0.194854736328125,-0.060821533203125
1718311094494117400,5.892117431640625,-0.9268035888671875,-0.158294677734375,0.066680908203125
1718311094543890400,5.941890380859375,-1.00543212890625,-0.199676513671875,-0.0074005126953125
1718311094593663500,5.99166357421875,-0.8583984375,-0.1935272216796875,0.0094451904296875
1718311094643436500,6.0414365234375,-1.008056640625,-0.2994537353515625,-0.0322723388671875
1718311094693210400,6.09121044921875,-1.052734375,-0.2818756103515625,0.0281982421875
1718311094742983400,6.1409833984375,-1.0604095458984375,-0.2736053466796875,0.097076416015625
1718311094792756200,6.190756103515625,-0.99261474609375,-0.30859375,0.03857421875
1718311094842529300,6.240529296875,-0.985992431640625,-0.24761962890625,0.0563507080078125
1718311094892303400,6.290303466796875,-0.91070556640625,-0.3289337158203125,0
1718311094942076400,6.340076416015625,-0.8882904052734375,-0.3310394287109375,0.0292816162109375
1718311094991849500,6.389849365234375,-0.9298553466796875,-0.2974395751953125,0.002288818359375
1718311095041622500,6.43962255859375,-0.9765777587890625,-0.2150421142578125,0.080780029296875
1718311095091395300,6.489395263671875,-0.9580841064453125,-0.240692138671875,0.04351806640625
1718311095141168400,6.53916845703125,-0.8893890380859375,-0.2370147705078125,0.1230621337890625
1718311095190941400,6.58894140625,-0.9378509521484375,-0.2350311279296875,0.1190338134765625
1718311095240714200,6.63871435546875,-0.9836273193359375,-0.1860198974609375,0.140960693359375
1718311095290487300,6.6884873046875,-0.9683074951171875,-0.308807373046875,0.055206298828125
1718311095340260400,6.73826025390625,-0.9430694580078125,-0.241424560546875,0.1226654052734375
1718311095390033200,6.788033203125,-1.1351318359375,-0.2275390625,0.1488189697265625
1718311095439806500,6.837806396484375,-1.1186676025390625,-0.1665802001953125,0.1658935546875
1718311095489579500,6.88757958984375,-0.8813018798828125,-0.2615814208984375,0.2525482177734375
1718311095539352300,6.937352294921875,-0.744720458984375,-0.22503662109375,0.1285858154296875
1718311095589125400,6.98712548828125,-0.91357421875,-0.1248016357421875,0.3602752685546875
1718311095638899200,7.036899169921875,-0.9040985107421875,-0.1919708251953125,0.1693572998046875
1718311095688671700,7.086671630859375,-0.817474365234375,-0.150421142578125,0.213043212890625
1718311095738444800,7.13644482421875,-0.8711090087890625,-0.1338348388671875,0.2176055908203125
1718311095788217900,7.1862177734375,-0.9416351318359375,-0.23944091796875,0.09478759765625
1718311095837990700,7.23599072265625,-0.97552490234375,-0.236480712890625,0.2508087158203125
1718311095887763700,7.285763671875,-0.9503173828125,-0.3217620849609375,0.12493896484375
1718311095937536800,7.335536865234375,-1.0450439453125,-0.3343658447265625,0.08050537109375
1718311095987309800,7.385309814453125,-0.8725433349609375,-0.34027099609375,0.1082763671875
1718311096037083000,7.435082763671875,-0.972198486328125,-0.3285369873046875,0.0282135009765625
1718311096086856000,7.48485595703125,-0.962677001953125,-0.295623779296875,0.19073486328125
1718311096136629000,7.53462890625,-1.017242431640625,-0.2564849853515625,0.22991943359375
1718311096186401800,7.58440185546875,-0.9121246337890625,-0.426788330078125,0.088592529296875
1718311096236174800,7.6341748046875,-1.002044677734375,-0.4481201171875,0.0894317626953125
1718311096285948000,7.683947998046875,-0.8982696533203125,-0.352691650390625,0.20098876953125
1718311096335720700,7.733720703125,-0.854278564453125,-0.3428192138671875,0.1850128173828125
1718311096385494800,7.783494873046875,-1.0703125,-0.3846893310546875,0.0588836669921875
1718311096435267800,7.833267822265625,-0.8518218994140625,-0.3298797607421875,0.1829071044921875
1718311096485041000,7.883041015625,-1.009490966796875,-0.336334228515625,0.0897979736328125
1718311096534814000,7.93281396484375,-0.966094970703125,-0.2837982177734375,0.1867828369140625
1718311096584586800,7.982586669921875,-1.0163421630859375,-0.3006591796875,0.08441162109375
1718311096634359800,8.03235986328125,-1.0126800537109375,-0.2013092041015625,0.1461334228515625
1718311096684132900,8.0821328125,-0.9371795654296875,-0.1138763427734375,0.1880645751953125
1718311096733906200,8.13190625,-0.8239593505859375,-0.15069580078125,0.121917724609375
1718311096783679200,8.18167919921875,-0.827301025390625,-0.3161163330078125,0.0159912109375
1718311096833452300,8.231452392578126,-0.963714599609375,-0.2660064697265625,0.0721435546875
1718311096883225000,8.28122509765625,-0.844970703125,-0.16497802734375,0.1728973388671875
1718311096932998400,8.330998291015625,-0.6599578857421875,-0.268341064453125,0.046905517578125
1718311096982771500,8.380771484375,-0.772064208984375,-0.3234405517578125,0.0305023193359375
1718311097032544300,8.430544189453125,-0.99969482421875,-0.3131256103515625,0.1146240234375
1718311097082317300,8.4803173828125,-1.111541748046875,-0.4161529541015625,-0.071502685546875
1718311097132090400,8.53009033203125,-1.0602264404296875,-0.3611602783203125,-0.047149658203125
1718311097181863400,8.579863525390625,-0.7837066650390625,-0.4345245361328125,-0.1002655029296875
1718311097231636200,8.62963623046875,-0.8384246826171875,-0.4365997314453125,-0.09210205078125
1718311097281410300,8.679410400390625,-0.8639373779296875,-0.3289031982421875,-0.0770721435546875
1718311097331183400,8.729183349609375,-0.8694000244140625,-0.45574951171875,-0.08819580078125
1718311097380956400,8.778956298828126,-1.0352935791015625,-0.4759368896484375,0.0368499755859375
1718311097430729500,8.8287294921875,-1.1953277587890625,-0.3215789794921875,0.1198272705078125
1718311097480502300,8.878502197265625,-1.1184844970703125,-0.1802978515625,-0.0003814697265625
1718311097530275300,8.928275390625,-0.954071044921875,-0.2791595458984375,-0.1314544677734375
1718311097580048400,8.97804833984375,-1.312530517578125,-0.2481231689453125,-0.0708770751953125
1718311097629821200,9.0278212890625,-0.93841552734375,-0.2646026611328125,-0.151275634765625
1718311097679594200,9.07759423828125,-0.8462677001953125,-0.2643585205078125,-0.144317626953125
1718311097729367000,9.127366943359375,-0.7704315185546875,-0.33416748046875,-0.2507171630859375
1718311097779140000,9.17714013671875,-0.822998046875,-0.3490753173828125,-0.0427703857421875
1718311097828913000,9.226912841796874,-0.7174530029296875,-0.59649658203125,-0.191436767578125
1718311097878686000,9.27668603515625,-0.789581298828125,-0.554779052734375,-0.2113189697265625
1718311097928459300,9.326459228515626,-0.7902069091796875,-0.503936767578125,-0.16314697265625
1718311097978232000,9.376232177734375,-0.8271484375,-0.6096649169921875,-0.0776824951171875
1718311098028005000,9.426005126953125,-0.793487548828125,-0.6308135986328125,-0.1169586181640625
1718311098077778200,9.475778076171874,-0.8513641357421875,-0.622344970703125,-0.0409698486328125
1718311098127551000,9.525551025390625,-0.7118988037109375,-0.58502197265625,0.0941619873046875
1718311098177324000,9.575323974609375,-0.8168792724609375,-0.574920654296875,-0.0411224365234375
1718311098227097000,9.62509716796875,-0.8508148193359375,-0.5279388427734375,0.0928192138671875
1718311098276870000,9.674869873046875,-0.833099365234375,-0.5406646728515625,-0.036102294921875
1718311098326643000,9.724642822265626,-0.844268798828125,-0.5167694091796875,0.07537841796875
1718311098376416000,9.774416015625,-0.921051025390625,-0.5101318359375,0.011138916015625
1718311098426189300,9.824189208984375,-0.91314697265625,-0.51617431640625,-0.0166778564453125
1718311098475962000,9.873962158203126,-0.7761993408203125,-0.4634246826171875,-0.0000762939453125
1718311098525735200,9.923735107421875,-0.82177734375,-0.4733428955078125,-0.0810699462890625
1718311098575508200,9.97350830078125,-0.563232421875,-0.4615020751953125,-0.0540924072265625
1718311098625282000,10.023281982421874,-0.7863922119140625,-0.437713623046875,-0.0948333740234375
1718311098675055000,10.07305517578125,-0.7139892578125,-0.443145751953125,0.023773193359375
1718311098724828200,10.122828125,-0.8706512451171875,-0.5193328857421875,-0.00494384765625
1718311098774601200,10.172601318359375,-0.830810546875,-0.5529632568359375,0.0390167236328125
1718311098824374300,10.222374267578125,-0.8206329345703125,-0.6116790771484375,0.0192413330078125
1718311098874147000,10.27214697265625,-0.894561767578125,-0.60882568359375,0.0583953857421875
1718311098923920100,10.321920166015625,-0.9339141845703125,-0.58489990234375,0.0822601318359375
1718311098973693200,10.371693115234375,-0.9019622802734375,-0.5771636962890625,0.0738525390625
1718311099023466000,10.421466064453124,-1.0136260986328125,-0.49041748046875,0.1837615966796875
1718311099073239000,10.471239013671875,-0.9018096923828125,-0.5724639892578125,0.108306884765625
1718311099123012400,10.521012451171876,-0.9439849853515625,-0.4706878662109375,0.1519012451171875
1718311099172785400,10.570785400390625,-0.791473388671875,-0.3454437255859375,0.0781707763671875
1718311099222558200,10.62055810546875,-0.714508056640625,-0.311004638671875,0.081756591796875
1718311099272331300,10.670331298828126,-0.72576904296875,-0.289825439453125,0.2162933349609375
1718311099322104300,10.720104248046875,-0.7875518798828125,-0.39715576171875,0.1126556396484375
1718311099371877000,10.769877197265625,-0.939910888671875,-0.4700775146484375,0.0379486083984375
1718311099421650200,10.819650146484374,-0.8646697998046875,-0.5188140869140625,0.154937744140625
1718311099471423200,10.86942333984375,-0.89251708984375,-0.6064605712890625,0.0243682861328125
1718311099521196000,10.919196044921875,-0.786346435546875,-0.59234619140625,0.066253662109375
1718311099570969000,10.968968994140624,-1.0210113525390625,-0.5569000244140625,0.02392578125
1718311099620742100,11.0187421875,-0.941162109375,-0.5254974365234375,0.0738983154296875
1718311099670515200,11.06851513671875,-0.9195709228515625,-0.5413665771484375,0.0614166259765625
1718311099720288000,11.1182880859375,-0.9700775146484375,-0.3918304443359375,0.214935302734375
1718311099770061000,11.16806103515625,-0.9395904541015625,-0.3637847900390625,-0.0024871826171875
1718311099819834000,11.217834228515626,-0.7814483642578125,-0.350494384765625,0.066192626953125
1718311099869607000,11.26760693359375,-0.786956787109375,-0.4016876220703125,-0.1224822998046875
1718311099919380200,11.317380126953125,-0.7160797119140625,-0.381683349609375,-0.035308837890625
1718311099969153300,11.3671533203125,-0.885406494140625,-0.4039154052734375,-0.0690460205078125
1718311100018926000,11.416926025390625,-0.90924072265625,-0.4639129638671875,-0.0727996826171875
1718311100068699100,11.46669921875,-0.89984130859375,-0.532135009765625,-0.1173858642578125
1718311100118472200,11.51647216796875,-0.833099365234375,-0.54547119140625,-0.059326171875
1718311100168244200,11.566244140625,-0.976959228515625,-0.5240478515625,-0.134490966796875
1718311100218017000,11.61601708984375,-0.9378814697265625,-0.557098388671875,-0.1652984619140625
1718311100267790000,11.6657900390625,-1.0775909423828125,-0.508941650390625,-0.14703369140625
1718311100317563100,11.715563232421875,-1.09185791015625,-0.39739990234375,-0.1300048828125
1718311100367336000,11.7653359375,-0.9720458984375,-0.3837432861328125,-0.19580078125
1718311100417109000,11.81510888671875,-0.7040863037109375,-0.3269805908203125,-0.1832427978515625
1718311100466882000,11.864882080078125,-0.639495849609375,-0.3505706787109375,-0.0449981689453125
1718311100516654800,11.91465478515625,-0.6701812744140625,-0.4584503173828125,-0.0739898681640625
1718311100566428200,11.96442822265625,-0.7318115234375,-0.5001220703125,-0.0331573486328125
1718311100616201200,12.014201171875,-0.9781646728515625,-0.53558349609375,-0.2001495361328125
1718311100665974000,12.06397412109375,-0.963775634765625,-0.50396728515625,-0.118865966796875
1718311100715747000,12.1137470703125,-0.8561248779296875,-0.499481201171875,-0.0295867919921875
1718311100765520100,12.16352001953125,-0.7747344970703125,-0.6399688720703125,-0.022674560546875
1718311100815293200,12.213293212890624,-0.9933624267578125,-0.65087890625,-0.1664276123046875
1718311100865066000,12.26306591796875,-1.0666961669921875,-0.617340087890625,-0.151458740234375
1718311100914839000,12.312839111328126,-0.9029388427734375,-0.57989501953125,-0.1910400390625
1718311100964612000,12.362612060546875,-0.8749542236328125,-0.439300537109375,-0.12823486328125
1718311101014385000,12.412385009765625,-0.6514739990234375,-0.3807830810546875,-0.147705078125
1718311101064158000,12.462157958984376,-0.6074066162109375,-0.3842620849609375,-0.14398193359375
1718311101113931300,12.51193115234375,-0.61920166015625,-0.4638519287109375,-0.140960693359375
1718311101163704000,12.5617041015625,-0.7219390869140625,-0.552337646484375,-0.127349853515625
1718311101213477000,12.61147705078125,-0.692535400390625,-0.6519927978515625,-0.2055206298828125
1718311101263250200,12.661250244140625,-0.977874755859375,-0.591796875,-0.19073486328125
1718311101313023000,12.71102294921875,-0.844146728515625,-0.6162109375,-0.20782470703125
1718311101362796000,12.760796142578124,-0.8188629150390625,-0.5970001220703125,-0.21881103515625
1718311101412569000,12.810569091796875,-0.7743072509765625,-0.646514892578125,-0.1394195556640625
1718311101462342100,12.860342041015626,-0.9752960205078125,-0.62030029296875,-0.2783050537109375
1718311101512114200,12.9101142578125,-1.034149169921875,-0.482696533203125,-0.32330322265625
1718311101561887000,12.959886962890625,-0.8664093017578125,-0.3961944580078125,-0.19476318359375
1718311101611660000,13.009659912109376,-0.53955078125,-0.45263671875,-0.0351409912109375
1718311101661433000,13.05943310546875,-0.58245849609375,-0.6005096435546875,-0.1942138671875
1718311101711206000,13.109205810546875,-0.7227783203125,-0.623565673828125,-0.1663665771484375
1718311101760979000,13.15897900390625,-0.89495849609375,-0.5945892333984375,-0.191253662109375
1718311101810752000,13.208751953125,-0.930999755859375,-0.50543212890625,-0.10784912109375
1718311101860524800,13.25852490234375,-0.7730712890625,-0.60400390625,-0.1273193359375
1718311101910297900,13.3082978515625,-0.726043701171875,-0.6558837890625,-0.1655120849609375
1718311101960071200,13.3580712890625,-0.875518798828125,-0.6056060791015625,-0.1937255859375
1718311102009844000,13.407843994140626,-0.8325347900390625,-0.5829925537109375,-0.1723785400390625
1718311102059617000,13.457616943359374,-0.91644287109375,-0.5124053955078125,-0.20123291015625
1718311102109390000,13.50739013671875,-0.907745361328125,-0.4111480712890625,-0.147918701171875
1718311102159163000,13.557162841796876,-0.7767791748046875,-0.35528564453125,-0.0898590087890625
1718311102208935000,13.606934814453124,-0.5041351318359375,-0.3795013427734375,-0.202728271484375
1718311102258708000,13.6567080078125,-0.3679656982421875,-0.243194580078125,-0.2249603271484375
1718311102308481000,13.70648095703125,-0.37408447265625,-0.1217803955078125,-0.4398345947265625
1718311102358254000,13.756254150390625,-0.794158935546875,-0.20892333984375,-0.657806396484375
1718311102408027000,13.80602685546875,-0.3415679931640625,-0.30133056640625,-0.812774658203125
1718311102457800000,13.855800048828126,-0.390228271484375,-0.2370452880859375,-1.0094146728515625
1718311102507573000,13.905572998046875,0.219573974609375,-0.0517120361328125,-0.73211669921875
1718311102557345800,13.955345703125,0.1352081298828125,0.0246429443359375,-1.08416748046875
1718311102607119000,14.005119140625,0.1351318359375,0.34234619140625,-0.757049560546875
1718311102656892200,14.05489208984375,-0.1182861328125,0.3985748291015625,-1.25994873046875
1718311102706665000,14.1046650390625,-0.415435791015625,0.5229034423828125,-1.3720855712890625
1718311102756438000,14.15443798828125,0.0107421875,0.40087890625,-1.7697601318359375
1718311102806210000,14.2042099609375,-0.188812255859375,0.2147979736328125,-2.1146392822265625
1718311102855983000,14.253983154296876,0.257476806640625,-0.03460693359375,-2.1181182861328125
1718311102905756000,14.303755859375,-0.08184814453125,0.4185791015625,-0.7365570068359375
1718311102955529000,14.353529052734375,0.3417510986328125,1.1434173583984375,0.3359222412109375
1718311103005302000,14.403302001953126,-0.0403289794921875,0.3393402099609375,-0.920166015625
1718311103055075000,14.453074951171875,0.01666259765625,0.66943359375,-0.9488372802734375
1718311103104848100,14.50284814453125,-0.1091461181640625,0.575653076171875,-1.6488189697265625
1718311103154621200,14.55262109375,0.2867279052734375,0.569549560546875,-1.8516998291015625
1718311103204394000,14.60239404296875,-0.3078155517578125,-0.02545166015625,-0.851531982421875
1718311103254167000,14.6521669921875,0.1632232666015625,0.815185546875,-0.6846466064453125
1718311103303940000,14.701940185546874,0.084747314453125,1.1393890380859375,-0.6454620361328125
1718311103353712000,14.751712158203125,0.376373291015625,0.7078094482421875,-0.713287353515625
1718311103403485200,14.801485107421875,0.7242431640625,0.59747314453125,-0.7021026611328125
1718311103453258000,14.851258056640624,0.56597900390625,0.57928466796875,-0.4792938232421875
1718311103503031000,14.901031005859375,0.729461669921875,0.4879302978515625,-0.13323974609375
1718311103552804000,14.95080419921875,0.53814697265625,0.276123046875,-0.255401611328125
1718311103602577000,15.000576904296874,0.514312744140625,0.4378814697265625,-0.172576904296875
1718311103652350200,15.05035009765625,0.3405914306640625,0.160125732421875,-0.2144622802734375
1718311103702122800,15.100122802734376,0.0737762451171875,0.5895843505859375,-0.7010040283203125
1718311103751895600,15.1498955078125,-0.4629669189453125,0.419830322265625,-0.166473388671875
1718311103801667600,15.19966748046875,-0.576812744140625,1.657623291015625,-0.575347900390625
1718311103851440600,15.249440673828126,0.4618072509765625,1.3545684814453125,-0.7379150390625
1718311103901213700,15.299213623046874,0.32733154296875,1.3691864013671875,0.1247711181640625
1718311103950986500,15.348986572265625,0.437469482421875,1.2245941162109375,0.06134033203125
1718311104000759600,15.398759521484376,-1.0006866455078125,0.995391845703125,-0.663421630859375
1718311104050532600,15.44853271484375,0.3630523681640625,0.9591217041015625,-0.69598388671875
1718311104100305700,15.4983056640625,-0.3524017333984375,1.9849853515625,0.01446533203125
1718311104150078500,15.548078369140624,0.3219451904296875,0.579864501953125,-0.2257080078125
1718311104199850500,15.5978505859375,0.406707763671875,1.4380035400390625,0.164337158203125
1718311104249623600,15.64762353515625,0.10467529296875,1.215667724609375,-0.08740234375
1718311104299396600,15.697396728515624,0.2591552734375,1.3306732177734375,0.0352325439453125
1718311104349169400,15.74716943359375,0.0708160400390625,1.300262451171875,0.0282440185546875
1718311104398942700,15.796942626953125,0.079925537109375,0.97247314453125,0.1168365478515625
1718311104448715800,15.8467158203125,-0.1087646484375,1.063720703125,0.1315765380859375
1718311104498488600,15.896488525390625,-0.09515380859375,1.0545196533203125,-0.2270355224609375
1718311104548260600,15.946260498046875,0.039276123046875,0.6417694091796875,0.18206787109375
1718311104598033700,15.99603369140625,1.3737640380859375,1.1620635986328125,0.9702606201171875
1718311104647806700,16.045806640625,-0.0208282470703125,-0.3427886962890625,0.626617431640625
1718311104697580000,16.095580078125,0.3884429931640625,0.1540069580078125,0.6988372802734375
1718311104747353000,16.14535302734375,0.3749542236328125,0.747406005859375,0.1392669677734375
1718311104797126100,16.195126220703123,0.1366729736328125,0.7124481201171875,0.3358306884765625
1718311104846899000,16.24489892578125,-0.0540618896484375,1.068145751953125,0.209625244140625
1718311104896671000,16.2946708984375,-0.135498046875,1.13983154296875,-0.389312744140625
1718311104946444000,16.344444091796873,0.18768310546875,0.8479766845703125,-0.459442138671875
1718311104996217000,16.394217041015626,0.2895050048828125,1.5689849853515625,0.24761962890625
1718311105045990000,16.443989990234375,-0.05487060546875,0.8154296875,0.301971435546875
1718311105095763000,16.493762939453124,-0.5609588623046875,1.2815704345703125,-0.6319122314453125
1718311105145536300,16.543536376953124,0.4542999267578125,1.2315216064453125,-0.0310211181640625
1718311105195308000,16.59330810546875,0.007659912109375,1.17877197265625,-0.050537109375
1718311105245081000,16.6430810546875,0.2672882080078125,1.1805267333984375,-0.261871337890625
1718311105294854100,16.692854248046874,0.3590545654296875,1.33123779296875,-0.2688751220703125
1718311105344627200,16.742627197265627,0.4911956787109375,1.5341339111328125,0.048736572265625
1718311105394400000,16.79239990234375,0.0048370361328125,1.2022552490234375,0.341278076171875
1718311105444173000,16.842173095703124,0.0586090087890625,1.0451812744140625,0.077850341796875
1718311105493946000,16.891946044921873,-0.24578857421875,0.9682159423828125,-0.281097412109375
1718311105543718100,16.94171826171875,0.094879150390625,1.14532470703125,-0.18328857421875
1718311105593491200,16.9914912109375,0.0982818603515625,0.509490966796875,0.21771240234375
1718311105643264000,17.041263916015627,0.8401947021484375,1.0349273681640625,0.7878265380859375
1718311105693037000,17.091037109375,-0.1658935546875,0.2917327880859375,0.467254638671875
1718311105742809600,17.1408095703125,0.170928955078125,-0.110260009765625,0.7498016357421875
1718311105792582400,17.19058251953125,0.332550048828125,0.9281463623046875,0.2170257568359375
1718311105842354400,17.2403544921875,0.0040740966796875,0.8765411376953125,-0.063018798828125
1718311105892127500,17.29012744140625,-0.01708984375,1.1309661865234375,-0.037750244140625
1718311105941900500,17.339900634765623,-0.02032470703125,1.0767822265625,-0.3390045166015625
1718311105991673300,17.38967333984375,0.094329833984375,0.80145263671875,0.155303955078125
1718311106041446400,17.4394462890625,0.300384521484375,1.378997802734375,0.1227569580078125
1718311106091219500,17.489219482421873,0.01287841796875,1.1255645751953125,-0.378936767578125
1718311106140992500,17.538992431640626,-0.1728363037109375,1.1680908203125,0.1655731201171875
1718311106190764500,17.5887646484375,0.2488555908203125,1.491485595703125,-0.3820037841796875
1718311106240537300,17.638537353515623,0.0099334716796875,1.1879730224609375,-0.00164794921875
1718311106290310400,17.688310302734376,0.2869415283203125,1.2624359130859375,-0.136444091796875
1718311106340083500,17.73808349609375,0.2632904052734375,1.33734130859375,-0.2146453857421875
1718311106389856300,17.787856201171873,0.46875,1.0711822509765625,-0.296234130859375
1718311106439629600,17.837629638671874,0.094207763671875,1.1569671630859375,0.2332611083984375
1718311106489401300,17.8874013671875,-0.197113037109375,1.2465972900390625,0.6685333251953125
1718311106539174700,17.937174560546875,-0.035003662109375,1.0556793212890625,-0.23370361328125
1718311106588947500,17.986947509765624,0.157928466796875,0.8242340087890625,-0.104400634765625
1718311106638720500,18.036720458984377,1.408477783203125,0.905029296875,0.6306610107421875
1718311106688493600,18.08649365234375,-0.2466888427734375,-0.244415283203125,0.564056396484375
1718311106738266600,18.1362666015625,0.136871337890625,-0.0652923583984375,1.277679443359375
1718311106788038700,18.18603857421875,0.1259918212890625,0.99163818359375,0.2018585205078125
1718311106837811700,18.235811767578124,-0.0534515380859375,0.8218231201171875,0.016998291015625
1718311106887585000,18.2855849609375,-0.0998382568359375,1.347442626953125,-0.009490966796875
1718311106937357800,18.33535791015625,0.064453125,0.9016265869140625,-0.4215240478515625
1718311106987131000,18.385130859375,0.010528564453125,1.0583953857421875,0.179962158203125
1718311107036904000,18.434904052734375,0.502777099609375,1.426666259765625,0.15081787109375
1718311107086676000,18.484676025390623,-0.330596923828125,1.2539520263671875,-0.172119140625
1718311107136448800,18.53444873046875,0.04376220703125,1.0998687744140625,-0.15985107421875
1718311107186221800,18.584221923828125,0.1007232666015625,1.3596649169921875,-0.091339111328125
1718311107235995000,18.633994873046873,0.2700958251953125,1.2637786865234375,-0.1302490234375
1718311107285767700,18.683767578125,0.3458404541015625,1.368927001953125,-0.2554473876953125
1718311107335540700,18.733540771484375,0.440399169921875,1.329864501953125,-0.2254180908203125
1718311107385312800,18.783312744140623,0.2287445068359375,1.1150665283203125,0.1296539306640625
1718311107435085800,18.8330859375,-0.2610626220703125,1.1046295166015625,0.6560821533203125
1718311107484858600,18.882858642578125,0.0636749267578125,1.1638336181640625,-0.132659912109375
1718311107534631700,18.932631591796873,-0.233795166015625,0.9575042724609375,-0.2804107666015625
1718311107584404700,18.98240478515625,0.428741455078125,0.4609375,0.164306640625
1718311107634176800,19.0321767578125,-0.0229034423828125,1.118865966796875,0.6062469482421875
1718311107683949800,19.08194970703125,-0.1514129638671875,-0.588775634765625,1.025970458984375
1718311107733723100,19.13172314453125,0.011566162109375,0.9312286376953125,0.3857421875
1718311107783496200,19.18149609375,0.0765533447265625,0.8980865478515625,0.0887603759765625
1718311107833269000,19.23126904296875,-0.06634521484375,1.181732177734375,-0.2667083740234375
1718311107883041000,19.281041015625,-0.2029876708984375,1.185546875,-0.4557037353515625
1718311107932814000,19.33081396484375,0.292236328125,1.1888580322265625,0.0931243896484375
1718311107982587100,19.380587158203124,0.518096923828125,1.2635345458984375,0.5041046142578125
1718311108032360200,19.430360107421876,-0.0189971923828125,1.0801544189453125,0.1142120361328125
1718311108082133000,19.480133056640625,-0.2476806640625,1.2825775146484375,-0.8170166015625
1718311108131905000,19.529905029296874,0.5717620849609375,1.4975128173828125,-0.12982177734375
1718311108181678000,19.579677978515626,0.384185791015625,1.25433349609375,0.098114013671875
1718311108231451100,19.629451171875,0.70013427734375,1.271881103515625,-0.28533935546875
1718311108281224000,19.679223876953124,0.150299072265625,1.342437744140625,0.275665283203125
1718311108330997000,19.7289970703125,0.092803955078125,1.1088714599609375,0.042449951171875
1718311108380769000,19.77876904296875,-0.02801513671875,1.21527099609375,-0.0141143798828125
1718311108430542000,19.8285419921875,0.2053680419921875,0.6847381591796875,-0.276092529296875
1718311108480315000,19.87831494140625,-0.157745361328125,1.1713104248046875,0.01953125
1718311108530088200,19.928088134765623,-0.0832672119140625,0.37860107421875,0.405487060546875
1718311108579861200,19.977861328125,0.17694091796875,0.401519775390625,0.5045928955078125
1718311108629633300,20.02763330078125,0.2377777099609375,0.43365478515625,0.895233154296875
1718311108679406000,20.077406005859373,0.1817626953125,0.4551849365234375,0.7636260986328125
1718311108729178400,20.127178466796874,0.23883056640625,0.8177642822265625,0.5147247314453125
1718311108778951400,20.176951416015626,0.395233154296875,1.135528564453125,0.06683349609375
1718311108828723500,20.226723388671875,0.1337127685546875,1.175445556640625,0.1113739013671875
1718311108878496500,20.27649658203125,0.15960693359375,0.8131866455078125,0.257080078125
1718311108928269300,20.326269287109376,-0.0406494140625,0.4906463623046875,0.1942138671875
1718311108978042400,20.37604248046875,0.1546478271484375,1.3004150390625,-0.2631683349609375
1718311109027814400,20.425814453125,0.0675506591796875,1.0912017822265625,-0.1475372314453125
1718311109077587500,20.47558740234375,-0.193695068359375,1.1564178466796875,0.0401763916015625
1718311109127360300,20.5253603515625,-0.1526947021484375,1.0966644287109375,-0.2173309326171875
1718311109177133300,20.57513330078125,-0.0100250244140625,1.1999969482421875,0.053741455078125
1718311109226906400,20.62490625,0.07305908203125,0.860260009765625,-0.0679931640625
1718311109276678400,20.674678466796873,-0.12677001953125,1.1250762939453125,-0.0541839599609375
1718311109326451200,20.724451171875,-0.0633697509765625,1.0576934814453125,-0.1489105224609375
1718311109376224300,20.774224365234375,-0.0569915771484375,1.3343353271484375,-0.0366668701171875
1718311109425997300,20.823997314453123,-0.0253448486328125,1.2647247314453125,0.0408782958984375
1718311109475769300,20.873769287109376,-0.0791778564453125,1.0368499755859375,-0.2061004638671875
1718311109525542100,20.923542236328124,-0.167449951171875,1.0660552978515625,0.0586090087890625
1718311109575315500,20.9733154296875,-0.1248321533203125,0.9830780029296875,0.164947509765625
1718311109625088500,21.023088623046874,-0.16162109375,0.933441162109375,-0.048980712890625
1718311109674860500,21.072860595703126,0.0257110595703125,1.052276611328125,-0.0516510009765625
1718311109724633300,21.12263330078125,0.0038604736328125,0.7731781005859375,0.265289306640625
1718311109774406400,21.172406494140624,0.1616668701171875,0.95843505859375,-0.03326416015625
1718311109824178200,21.22217822265625,0.2421722412109375,0.88641357421875,-0.184722900390625
1718311109873951500,21.271951416015625,0.01397705078125,0.9377593994140625,0.1873779296875
1718311109923724300,21.321724365234374,0.0900421142578125,0.93389892578125,0.1961669921875
1718311109973497300,21.371497314453126,0.093170166015625,0.94281005859375,0.384124755859375
1718311110023269400,21.421269287109375,0.085662841796875,0.9107666015625,0.368072509765625
1718311110073042400,21.47104248046875,0.1495208740234375,0.86236572265625,0.4500732421875
1718311110122815500,21.5208154296875,0.305419921875,0.858367919921875,0.306121826171875
1718311110172588300,21.57058837890625,0.2446746826171875,0.814453125,0.353240966796875
1718311110222360300,21.6203603515625,0.3150177001953125,0.8527984619140625,0.34429931640625
1718311110272133400,21.67013330078125,0.28558349609375,0.878448486328125,0.34661865234375
1718311110321906400,21.719906494140623,0.2122650146484375,0.8306732177734375,0.3664703369140625
1718311110371678500,21.769678466796876,0.295562744140625,0.86529541015625,0.4306793212890625
1718311110421451300,21.819451171875,0.2230987548828125,0.7943115234375,0.411163330078125
1718311110471224300,21.869224365234373,0.3153228759765625,1.00714111328125,0.294677734375
1718311110520996400,21.918996337890626,0.2773284912109375,0.974151611328125,0.283935546875
1718311110570769400,21.968769287109374,0.2513885498046875,0.98077392578125,0.1875762939453125
1718311110620542200,22.018542236328123,0.1337738037109375,0.8721466064453125,0.207733154296875
1718311110670315300,22.068315185546876,0.4205780029296875,0.9223480224609375,0.41131591796875
1718311110720087300,22.11808740234375,0.341064453125,0.8522491455078125,0.4586181640625
1718311110769860400,22.1678603515625,0.4278411865234375,0.8922271728515625,0.2173309326171875
1718311110819633200,22.217633056640626,0.4770965576171875,0.9776153564453125,0.2367095947265625
1718311110869405200,22.2674052734375,0.363525390625,1.016143798828125,0.2364044189453125
1718311110919178200,22.31717822265625,0.4186859130859375,0.754638671875,0.35467529296875
1718311110968951300,22.366951416015624,0.404083251953125,0.921112060546875,0.3970794677734375
1718311111018723300,22.416723388671876,0.4439239501953125,0.7695159912109375,0.279052734375
1718311111068496100,22.46649609375,0.4077606201171875,0.8713531494140625,0.3690185546875
1718311111118269200,22.516269287109374,0.41375732421875,0.7946624755859375,0.4232330322265625
1718311111168041200,22.566041259765626,0.4734039306640625,0.720123291015625,0.456573486328125
1718311111217814300,22.615814208984375,0.570404052734375,0.665008544921875,0.50213623046875
1718311111267587000,22.665587158203124,0.634552001953125,0.6908416748046875,0.566436767578125
1718311111317359000,22.715359130859376,0.5703887939453125,0.5979766845703125,0.2780914306640625
1718311111367132200,22.765132080078125,0.5688934326171875,0.5302276611328125,0.481781005859375
1718311111416905200,22.8149052734375,0.488494873046875,0.7074127197265625,0.5062408447265625
1718311111466677200,22.86467724609375,0.5372314453125,0.664276123046875,0.375640869140625
1718311111516450000,22.914449951171875,0.510284423828125,0.682281494140625,0.5022125244140625
1718311111566223000,22.96422314453125,0.477569580078125,0.698394775390625,0.54931640625
1718311111615995100,23.0139951171875,0.5274505615234375,0.688934326171875,0.426300048828125
1718311111665768200,23.063768310546877,0.526214599609375,0.712188720703125,0.4394378662109375
1718311111715540500,23.11354052734375,0.5316619873046875,0.66290283203125,0.4045562744140625
1718311111765313300,23.163313232421874,0.5161895751953125,0.85833740234375,0.4610748291015625
1718311111815086300,23.21308642578125,0.4024658203125,0.674072265625,0.4617462158203125
1718311111864858400,23.2628583984375,0.4876861572265625,0.6943206787109375,0.528228759765625
1718311111914631400,23.31263134765625,0.474884033203125,0.721160888671875,0.5376434326171875
1718311111964404200,23.362404296875,0.5409088134765625,0.6717987060546875,0.4549713134765625
1718311112014176300,23.41217626953125,0.5299835205078125,0.7236328125,0.466705322265625
1718311112063949300,23.46194921875,0.5541839599609375,0.7164306640625,0.4067230224609375
1718311112113721300,23.511721435546875,0.469390869140625,0.7086334228515625,0.438262939453125
1718311112163494400,23.561494384765624,0.4680938720703125,0.7781219482421875,0.4725494384765625
1718311112213267200,23.61126708984375,0.4561614990234375,0.755035400390625,0.427337646484375
1718311112263039200,23.661039306640625,0.50225830078125,0.7764892578125,0.4185791015625
1718311112312812300,23.710812255859373,0.501495361328125,0.8312530517578125,0.3270111083984375
1718311112362585600,23.760585693359374,0.4818115234375,0.7561492919921875,0.37548828125
1718311112412357400,23.810357421875,0.4780120849609375,0.7640533447265625,0.4723358154296875
1718311112462130400,23.86013037109375,0.5487823486328125,0.712127685546875,0.42108154296875
1718311112511902200,23.909902099609376,0.4993438720703125,0.7073822021484375,0.4621429443359375
1718311112561675500,23.959675537109376,0.6118011474609375,0.801666259765625,0.403289794921875
1718311112611448600,24.009448486328125,0.500579833984375,0.7156829833984375,0.318359375
1718311112661220600,24.059220703125,0.4414215087890625,0.8372039794921875,0.395294189453125
1718311112710994000,24.108993896484375,0.3408660888671875,0.8169708251953125,0.3464508056640625
1718311112760766000,24.158765869140623,0.2555084228515625,0.8549346923828125,0.4029541015625
1718311112810539000,24.2085390625,0.3024749755859375,0.8497772216796875,0.305908203125
1718311112860312000,24.25831201171875,0.285797119140625,0.907135009765625,0.21514892578125
1718311112910084000,24.308083984375,0.26837158203125,0.9012908935546875,0.2091064453125
1718311112959857000,24.35785693359375,0.20166015625,0.896331787109375,0.1477813720703125
1718311113009629000,24.40762890625,0.19189453125,0.96905517578125,0.1025238037109375
1718311113059402000,24.457402099609375,0.1951904296875,0.9719390869140625,0.09490966796875
1718311113109174000,24.507174072265624,0.094696044921875,0.9712066650390625,0.136322021484375
1718311113158947000,24.556947021484376,0.1116485595703125,0.9881439208984375,0.2044830322265625
1718311113208720000,24.606719970703125,0.085357666015625,1.019500732421875,-0.0271453857421875
1718311113258492000,24.656491943359374,0.0632476806640625,1.02740478515625,-0.024169921875
1718311113308265000,24.706264892578126,0.15069580078125,1.009735107421875,0.042022705078125
1718311113358037000,24.756037109375,0.049224853515625,1.01898193359375,-0.075775146484375
1718311113407810000,24.80581005859375,0.153076171875,1.021942138671875,0.086395263671875
1718311113457582000,24.85558203125,0.131561279296875,1.1189422607421875,-0.0023345947265625
1718311113507355000,24.90535498046875,0.4733428955078125,0.9820404052734375,0.744415283203125
1718311113557128000,24.9551279296875,0.2299346923828125,1.134552001953125,0.4218292236328125
1718311113606900000,25.00489990234375,0.5904541015625,1.362152099609375,-1.11865234375
1718311113656673000,25.054673095703127,-0.2566680908203125,0.8193511962890625,0.80987548828125
1718311113706444300,25.1044443359375,0.1109771728515625,0.8464508056640625,-0.251220703125
1718311113756217300,25.15421728515625,-0.6066436767578125,0.96527099609375,-0.101806640625
1718311113805989400,25.2039892578125,0.0008697509765625,0.95318603515625,0.3499603271484375
1718311113855762200,25.25376220703125,-0.05859375,1.0920562744140625,0.275726318359375
1718311113905534200,25.3035341796875,-0.03662109375,1.328399658203125,0.374542236328125
1718311113955307300,25.353307373046874,-0.1860809326171875,0.9887847900390625,-0.0458984375
1718311114005079300,25.403079345703127,-0.190216064453125,0.8883056640625,0.22882080078125
1718311114054852400,25.452852294921875,0.0599212646484375,1.059173583984375,0.1114501953125
1718311114104624400,25.502624267578124,-0.2305145263671875,0.7371063232421875,0.1067047119140625
1718311114154397200,25.552397216796876,-0.1911163330078125,1.021148681640625,-0.0022735595703125
1718311114204170200,25.602170166015625,-0.127197265625,0.80743408203125,0.3134613037109375
1718311114253942300,25.6519423828125,-0.3749237060546875,0.8584442138671875,0.299896240234375
1718311114303715300,25.70171533203125,-0.2169647216796875,0.9781341552734375,-0.0404815673828125
1718311114353487400,25.7514873046875,-0.1480712890625,0.8150634765625,0.291229248046875
1718311114403260200,25.80126025390625,-0.0634613037109375,0.9030914306640625,0.071319580078125
1718311114453032200,25.8510322265625,-0.115936279296875,0.951263427734375,0.0866546630859375
1718311114502805200,25.90080517578125,-0.1555633544921875,0.9650115966796875,0.1999359130859375
1718311114552577300,25.950577392578126,-0.063629150390625,1.014556884765625,0.1839447021484375
1718311114602350300,26.000350341796874,-0.2531585693359375,1.0925445556640625,0.115234375
1718311114652122400,26.050122314453127,-0.326629638671875,1.0908203125,0.22650146484375
1718311114701895200,26.099895263671876,-0.238616943359375,1.03656005859375,0.206085205078125
1718311114751668000,26.14966796875,-0.13348388671875,1.0201263427734375,0.1930694580078125
1718311114801441000,26.19944091796875,-0.11138916015625,0.9896240234375,0.0544281005859375
1718311114851213000,26.249213134765625,-0.1124420166015625,1.0281829833984375,-0.04693603515625
1718311114900985000,26.298985107421874,-0.0646514892578125,1.0109100341796875,0.1281585693359375
1718311114950758000,26.3487578125,-0.142578125,0.96075439453125,0.008514404296875
1718311115000530000,26.398530029296875,-0.2220306396484375,0.994659423828125,0.0565338134765625
1718311115050303000,26.448302978515624,-0.0240936279296875,1.0061187744140625,0.1325836181640625
1718311115100075000,26.498074951171876,-0.0306396484375,0.998809814453125,0.0008087158203125
1718311115149848000,26.54784814453125,-0.08587646484375,0.968170166015625,0.0245513916015625
1718311115199620000,26.5976201171875,-0.1185150146484375,0.9363555908203125,0.0469970703125
1718311115249393000,26.647392822265626,-0.0014495849609375,0.982757568359375,0.0485992431640625
1718311115299165000,26.6971650390625,-0.001007080078125,1.053497314453125,-0.02752685546875
1718311115348938000,26.74693798828125,0.1609039306640625,0.901885986328125,0.097808837890625
1718311115398710000,26.7967099609375,0.0475006103515625,1.13165283203125,-0.096282958984375
1718311115448483000,26.846483154296877,-0.023284912109375,0.9477996826171875,0.0930938720703125
1718311115498255000,26.896255126953125,-0.1460113525390625,0.9877777099609375,-0.0491180419921875
1718311115548028000,26.94602783203125,0.01068115234375,1.034149169921875,-0.0532073974609375
1718311115597800000,26.995800048828126,-0.0203857421875,0.966461181640625,0.1786041259765625
1718311115647573000,27.045572998046875,-0.0008544921875,0.944976806640625,0.1454925537109375
1718311115697345000,27.095344970703124,-0.1387939453125,1.0081329345703125,-0.0687408447265625
1718311115747116300,27.1451162109375,-0.1496124267578125,0.95098876953125,-0.0901947021484375
1718311115796889300,27.194889404296877,-0.0885467529296875,1.0088958740234375,0.031219482421875
1718311115846661400,27.244661376953125,-0.0574951171875,0.9851837158203125,0.147613525390625
1718311115896434400,27.294434326171874,-0.0791473388671875,1.0296783447265625,0.029541015625
1718311115946206200,27.344206298828126,-0.10443115234375,0.9524383544921875,0.005096435546875
1718311115995979300,27.393979248046875,0.0048065185546875,0.99462890625,0.0095672607421875
1718311116045751300,27.443751220703124,-0.0671844482421875,1.0034332275390625,0.0111083984375
1718311116095524400,27.4935244140625,-0.17803955078125,0.9766845703125,-0.018035888671875
1718311116145296400,27.54329638671875,-0.0782470703125,0.97296142578125,0.1219024658203125
1718311116195068400,27.593068359375,-0.148590087890625,1.0452728271484375,-0.0458221435546875
1718311116244841200,27.64284130859375,-0.302459716796875,0.99127197265625,0.1190643310546875
1718311116294613200,27.69261328125,-0.18341064453125,0.9915008544921875,0.0853729248046875
1718311116344386300,27.74238623046875,-0.5225677490234375,1.05755615234375,0.011749267578125
1718311116394158300,27.792158447265624,-0.3228759765625,0.8997039794921875,0.088653564453125
1718311116443931400,27.841931396484377,-0.0814666748046875,1.0294036865234375,-0.0478668212890625
1718311116493703400,27.891703369140625,0.004180908203125,1.037445068359375,-0.0788116455078125
1718311116543475500,27.941475341796874,0.134979248046875,1.147857666015625,-0.050689697265625
1718311116593248300,27.991248291015626,0.1488494873046875,1.1107940673828125,0.013702392578125
1718311116643020300,28.041020263671875,0.05474853515625,0.783294677734375,0.0971832275390625
1718311116692793300,28.09079345703125,0.13677978515625,1.09814453125,-0.07550048828125
1718311116742566100,28.140566162109376,-0.19500732421875,0.9727783203125,0.0895538330078125
1718311116792339200,28.190339111328125,-0.203826904296875,1.021514892578125,0.330078125
1718311116842111200,28.240111328125,0.2242584228515625,1.111480712890625,0.147216796875
1718311116891883000,28.289883056640626,0.0537261962890625,1.0861968994140625,0.2191314697265625
1718311116941656000,28.339656005859375,-0.2325286865234375,0.8097686767578125,0.1141357421875
1718311116991428000,28.389427978515624,0.1600799560546875,1.0518798828125,-0.097381591796875
1718311117041201200,28.439201171875,0.2180938720703125,1.0354156494140625,0.1258392333984375
1718311117090973200,28.48897314453125,0.0686187744140625,0.840728759765625,0.350860595703125
1718311117140745200,28.5387451171875,0.347930908203125,0.9595489501953125,0.3988494873046875
1718311117190518000,28.58851806640625,1.095672607421875,1.4889068603515625,0.7676239013671875
1718311117240290000,28.6382900390625,-0.064971923828125,0.4680938720703125,0.2564697265625
1718311117290063000,28.68806298828125,0.531036376953125,0.46148681640625,0.247314453125
1718311117339835100,28.737835205078124,0.383697509765625,0.870635986328125,0.1704864501953125
1718311117389607200,28.787607177734376,0.299896240234375,0.31890869140625,0.580963134765625
1718311117439380200,28.837380126953125,0.4381561279296875,0.62396240234375,0.312957763671875
1718311117489152300,28.88715234375,0.3993072509765625,0.708343505859375,0.2729339599609375
1718311117538924300,28.93692431640625,0.2994384765625,0.620697021484375,0.52899169921875
1718311117588697000,28.986697021484375,0.1327056884765625,0.7704010009765625,0.499298095703125
1718311117638469000,29.03646923828125,-0.0857086181640625,0.91400146484375,0.3004608154296875
1718311117688241200,29.0862412109375,-0.0894317626953125,1.064544677734375,0.065673828125
1718311117738013200,29.13601318359375,0.011566162109375,1.1835174560546875,-0.0596923828125
1718311117787785200,29.18578515625,0.00006103515625,1.04522705078125,-0.156646728515625
1718311117837558300,29.235558349609374,0.039093017578125,1.1327362060546875,0.080352783203125
1718311117887330300,29.285330322265626,0.1340179443359375,0.9958038330078125,0.0782318115234375
1718311117937102300,29.335102294921874,-0.04217529296875,1.0751953125,0.02313232421875
1718311117986875400,29.38487548828125,0.0377349853515625,1.1413726806640625,-0.027069091796875
1718311118036647400,29.4346474609375,-0.021881103515625,1.1629486083984375,-0.13470458984375
1718311118086419500,29.48441943359375,-0.0072479248046875,1.1048431396484375,0.1468353271484375
1718311118136192300,29.534192138671877,-0.039520263671875,1.1045379638671875,-0.2193603515625
1718311118185964300,29.58396435546875,0.170745849609375,1.0330810546875,-0.0274200439453125
1718311118235737300,29.6337373046875,0.2687530517578125,1.273406982421875,0.0901031494140625
1718311118285509400,29.68350927734375,0.108673095703125,1.1664276123046875,0.0628509521484375
1718311118335281400,29.733281494140623,0.4262542724609375,1.2277069091796875,-0.1251068115234375
1718311118385054500,29.783054443359376,-0.0846099853515625,0.9422454833984375,0.165435791015625
1718311118434826500,29.832826416015624,-0.307403564453125,0.9846649169921875,0.1335296630859375
1718311118484598300,29.882598388671877,-0.2568511962890625,1.1209564208984375,0.330352783203125
1718311118534371300,29.932371337890626,-0.309356689453125,1.1650390625,0.009033203125
1718311118584143400,29.982143310546874,0.316162109375,1.1301116943359375,-0.0314178466796875
1718311118633915400,30.031915283203126,0.6089324951171875,1.1944122314453125,0.2158966064453125
1718311118683688400,30.0816884765625,0.095428466796875,0.51385498046875,0.5341644287109375
1718311118733460700,30.131460693359376,0.305511474609375,0.635284423828125,0.4452056884765625
1718311118783232500,30.181232421875,0.5089111328125,0.615020751953125,0.012298583984375
1718311118833005600,30.231005615234373,0.352630615234375,0.5021209716796875,0.308624267578125
1718311118882777300,30.28077734375,0.249542236328125,0.656890869140625,0.410614013671875
1718311118932549400,30.33054931640625,0.3297576904296875,0.845001220703125,0.3380126953125
1718311118982322400,30.380322509765627,0.052520751953125,0.9728240966796875,0.4467315673828125
1718311119032094500,30.430094482421875,0.2228851318359375,1.2592620849609375,0.2294769287109375
1718311119081866500,30.479866455078124,0.2723388671875,1.16357421875,0.0649261474609375
1718311119131639600,30.5296396484375,0.2787322998046875,0.6670379638671875,0.3201904296875
1718311119181411600,30.57941162109375,0.164581298828125,0.9927825927734375,-0.0099334716796875
1718311119231183600,30.62918359375,0.0287017822265625,0.7419891357421875,-0.0545806884765625
1718311119280956400,30.678956298828126,-0.0759735107421875,0.906585693359375,-0.0616607666015625
1718311119330728400,30.728728515625,0.0123748779296875,1.255584716796875,-0.3238067626953125
1718311119380501500,30.77850146484375,0.166290283203125,1.211822509765625,0.207672119140625
1718311119430273500,30.8282734375,-0.0588226318359375,1.160919189453125,0.0539398193359375
1718311119480045600,30.878045654296876,-0.1949462890625,1.1509246826171875,-0.059112548828125
1718311119529818600,30.927818603515625,-0.0302886962890625,1.1241607666015625,0.048126220703125
1718311119579590700,30.977590576171874,0.057586669921875,0.9732513427734375,0.120513916015625
1718311119629362700,31.02736279296875,0.0028228759765625,0.7508544921875,-0.08929443359375
1718311119679135500,31.077135498046875,-0.1082763671875,0.928070068359375,0.065032958984375
1718311119728907500,31.126907470703124,-0.0492095947265625,0.9744110107421875,-0.0390472412109375
1718311119778679600,31.176679443359376,0.2647857666015625,1.10809326171875,0.0461883544921875
1718311119828452600,31.22645263671875,0.2161865234375,1.2061920166015625,0.0138092041015625
1718311119878224600,31.276224609375,0.178131103515625,1.02008056640625,0.1982421875
1718311119927997700,31.325997802734374,-0.078277587890625,1.129364013671875,0.389923095703125
1718311119977769700,31.375769775390626,-0.18377685546875,1.1624603271484375,0.033111572265625
1718311120027541800,31.425541748046875,0.059356689453125,1.2295379638671875,-0.1571044921875
1718311120077314600,31.475314453125,0.3236541748046875,1.057220458984375,0.0872039794921875
1718311120127086600,31.525086669921876,0.5257415771484375,0.9174652099609375,0.3320770263671875
1718311120176858600,31.574858642578125,-0.0371551513671875,1.0487518310546875,0.766326904296875
1718311120226631700,31.624631591796874,-0.005157470703125,0.040771484375,0.620635986328125
1718311120276403700,31.67440380859375,0.363037109375,0.7589874267578125,0.0027923583984375
1718311120326175500,31.724175537109375,0.1753997802734375,0.4361114501953125,0.4597015380859375
1718311120375948500,31.773948486328123,0.35577392578125,0.5498046875,0.5570068359375
1718311120425720600,31.823720458984376,0.2761077880859375,0.813262939453125,-0.0296783447265625
1718311120475493600,31.87349365234375,0.2399749755859375,1.1725311279296875,-0.09552001953125
1718311120525265400,31.923265380859377,-0.059783935546875,0.9919891357421875,0.038604736328125
1718311120575037400,31.973037353515625,-0.143646240234375,1.073760986328125,0.025177001953125
1718311120624810500,32.022810546875,0.0437164306640625,1.2548980712890625,-0.026611328125
1718311120674582500,32.07258251953125,0.109344482421875,1.1829071044921875,-0.040863037109375
1718311120724355600,32.12235546875,-0.009185791015625,0.942047119140625,-0.03704833984375
1718311120774127400,32.17212744140625,-0.09814453125,1.090850830078125,-0.0788726806640625
1718311120823899400,32.2218994140625,0.0606842041015625,1.15087890625,-0.0497894287109375
1718311120873672400,32.27167236328125,0.075164794921875,1.3043365478515625,0.0837249755859375
1718311120923444500,32.32144458007812,0.227020263671875,1.112274169921875,-0.15948486328125
1718311120973217500,32.37121752929688,0.0584716796875,1.1320343017578125,-0.0488433837890625
1718311121022989600,32.42098950195312,0.1951141357421875,1.183502197265625,-0.02825927734375
1718311121072761600,32.47076171875,0.2464752197265625,1.1221923828125,0.022430419921875
1718311121122534400,32.520534423828124,0.3121185302734375,1.0482177734375,0.0630645751953125
1718311121172306400,32.570306396484376,-0.015045166015625,1.1249237060546875,0.3692779541015625
1718311121222079500,32.62007958984375,-0.1664276123046875,1.170166015625,0.615875244140625
1718311121271851500,32.6698515625,-0.2781219482421875,1.3470306396484375,-0.265380859375
1718311121321623300,32.71962329101562,0.0367279052734375,0.82147216796875,-0.067535400390625
1718311121371396600,32.76939672851562,0.3354339599609375,0.5201263427734375,0.064239501953125
1718311121421168400,32.81916845703125,1.249725341796875,1.906005859375,0.43133544921875
1718311121470941400,32.86894140625,-0.6184539794921875,-0.3123626708984375,0.7122955322265625
1718311121520713200,32.918713134765625,0.5062713623046875,0.26727294921875,0.8299560546875
1718311121570486500,32.968486572265626,0.1846771240234375,1.1537017822265625,-0.2778778076171875
1718311121620258300,33.01825830078125,0.2275238037109375,0.5542144775390625,0.29541015625
1718311121670030300,33.0680302734375,0.2118682861328125,0.8972930908203125,0.2540740966796875
1718311121719803600,33.1178037109375,-0.0604705810546875,1.14581298828125,0.0253143310546875
1718311121769575700,33.16757568359375,-0.091796875,0.9921722412109375,-0.2125701904296875
1718311121819348500,33.21734838867187,0.08349609375,1.2648773193359375,-0.28521728515625
1718311121869120500,33.26712060546875,0.1113128662109375,1.0837860107421875,0.0977935791015625
1718311121918893600,33.3168935546875,-0.15570068359375,0.9318084716796875,0.144989013671875
1718311121968665600,33.36666552734375,-0.0530853271484375,1.29669189453125,-0.1186981201171875
1718311122018438700,33.41643872070313,0.125946044921875,1.3305206298828125,0.13604736328125
1718311122068210700,33.46621069335937,0.2453460693359375,1.034393310546875,0.0066986083984375
1718311122117982700,33.515982666015624,0.058837890625,1.1561126708984375,-0.0916595458984375
1718311122167755500,33.56575561523437,0.2511749267578125,1.4602203369140625,0.0407257080078125
1718311122217527600,33.615527587890625,0.426666259765625,1.229736328125,-0.1022796630859375
1718311122267300600,33.665300537109374,0.0218048095703125,1.05975341796875,0.2472076416015625
1718311122317072600,33.71507275390625,-0.0880279541015625,1.214599609375,0.58160400390625
1718311122366845700,33.764845703125,-0.2994232177734375,1.165771484375,0.213653564453125
1718311122416617700,33.81461767578125,-0.2613067626953125,1.1846771240234375,-0.3977203369140625
1718311122466390500,33.864390625,-0.0039215087890625,0.594573974609375,0.004364013671875
1718311122516162600,33.91416259765625,1.146240234375,0.8682403564453125,0.5297393798828125
1718311122565935600,33.963935546875,-0.402252197265625,0.638885498046875,0.4400787353515625
1718311122615707600,34.013707763671874,-0.160980224609375,-0.6457061767578125,1.0005035400390625
1718311122665480700,34.06348071289062,0.2408599853515625,1.03338623046875,-0.13299560546875
1718311122715252700,34.113252685546875,0.2068023681640625,1.288604736328125,0.0225067138671875
1718311122765025500,34.163025634765624,0.1813507080078125,0.75958251953125,0.154052734375
1718311122814797600,34.21279760742188,0.0506744384765625,1.1643524169921875,-0.202545166015625
1718311122864570600,34.262570556640625,0.147705078125,1.285552978515625,-0.241607666015625
1718311122914342700,34.3123427734375,0.165191650390625,1.1310577392578125,0.3313446044921875
1718311122964115700,34.36211572265625,-0.237518310546875,1.086639404296875,-0.1311187744140625
1718311123013887700,34.4118876953125,-0.083709716796875,1.1360015869140625,-0.0003509521484375
1718311123063660500,34.46166064453125,0.2133941650390625,1.2987213134765625,-0.0526885986328125
1718311123113432600,34.5114326171875,0.227294921875,1.121673583984375,-0.0751800537109375
1718311123163205600,34.56120556640625,0.17535400390625,1.0310516357421875,-0.09844970703125
1718311123212977700,34.610977783203126,0.1809539794921875,1.2331390380859375,-0.1197052001953125
1718311123262750700,34.660750732421874,0.3469696044921875,1.123626708984375,-0.1276397705078125
1718311123312522800,34.71052270507813,0.03729248046875,1.217193603515625,0.342681884765625
1718311123362295600,34.760295654296876,-0.118316650390625,1.3493499755859375,0.4921875
1718311123412067600,34.81006762695313,-0.351715087890625,1.143768310546875,-0.175933837890625
1718311123461840600,34.85984057617188,-0.081878662109375,0.9344940185546875,-0.2083892822265625
1718311123511612700,34.90961279296875,0.28741455078125,0.68243408203125,0.121063232421875
1718311123561385700,34.9593857421875,0.3425445556640625,1.1887359619140625,0.4269256591796875
1718311123611157800,35.00915771484375,-0.40777587890625,-0.28253173828125,0.8957977294921875
1718311123660930600,35.0589306640625,0.27081298828125,0.3600616455078125,0.479644775390625
1718311123710702600,35.10870263671875,0.12322998046875,0.891845703125,-0.0538482666015625
1718311123760475100,35.15847509765625,0.22442626953125,1.123504638671875,0.3111419677734375
1718311123810248200,35.20824829101562,0.0667266845703125,0.9118804931640625,-0.0190582275390625
1718311123860020200,35.258020263671874,-0.0913238525390625,1.1498870849609375,-0.1442413330078125
1718311123909793000,35.30779296875,-0.0754852294921875,1.078033447265625,-0.2923126220703125
1718311123959565000,35.35756494140625,0.1932525634765625,1.4728851318359375,0.21002197265625
1718311124009338000,35.407338134765624,-0.225189208984375,0.9412384033203125,0.1287078857421875
1718311124059110100,35.457110107421876,0.023406982421875,1.203704833984375,-0.198272705078125
1718311124108883200,35.50688330078125,0.051116943359375,1.177093505859375,-0.1907501220703125
1718311124158655200,35.5566552734375,0.0862884521484375,1.1380767822265625,-0.1830291748046875
1718311124208428000,35.606427978515626,0.2683258056640625,1.2117767333984375,-0.0807647705078125
1718311124258201000,35.656201171875,0.2070159912109375,1.300537109375,-0.110931396484375
1718311124307973000,35.70597314453125,0.3026275634765625,1.0907135009765625,-0.1209259033203125
1718311124357746200,35.75574609375,-0.027069091796875,0.938018798828125,0.146026611328125
1718311124407518200,35.80551831054687,-0.284820556640625,1.2679595947265625,0.557891845703125
1718311124457291000,35.855291015625,-0.0950927734375,1.22528076171875,0.2250518798828125
1718311124507064000,35.90506396484375,-0.0977783203125,1.2000732421875,-0.375213623046875
1718311124556836000,35.95483618164062,0.8318939208984375,1.40850830078125,0.134674072265625
1718311124606609200,36.00460913085937,-0.151702880859375,0.1688232421875,0.3983306884765625
1718311124656381200,36.054381103515624,-0.0166473388671875,0.054779052734375,0.7074432373046875
1718311124706154000,36.10415405273437,0.432830810546875,0.594390869140625,0.2929534912109375
1718311124755927000,36.15392700195312,0.1798095703125,0.611328125,0.402740478515625
1718311124805699000,36.203698974609374,0.3369293212890625,0.5469970703125,0.51361083984375
1718311124855472000,36.25347216796875,0.1890869140625,1.17608642578125,-0.1231842041015625
1718311124905244200,36.303244140625,-0.0637664794921875,1.086273193359375,-0.1490020751953125
1718311124955017200,36.353017333984376,-0.0273284912109375,1.033416748046875,-0.0382537841796875
1718311125004790300,36.402790283203124,-0.1132354736328125,1.047698974609375,-0.2471771240234375
1718311125054562000,36.45256201171875,0.3109893798828125,1.244354248046875,0.1734771728515625
1718311125104335400,36.50233544921875,-0.120697021484375,0.9941558837890625,0.0838470458984375
1718311125154108200,36.552108154296874,-0.138336181640625,1.051116943359375,-0.0390625
1718311125203880200,36.60188012695313,0.1513671875,1.2238311767578125,-0.1105194091796875
1718311125253653200,36.6516533203125,-0.1155242919921875,1.26043701171875,-0.1007843017578125
1718311125303426300,36.70142626953125,0.0567626953125,1.09161376953125,0.13861083984375
1718311125353198300,36.7511982421875,0.214385986328125,1.106414794921875,-0.1394500732421875
1718311125402971400,36.80097143554688,0.083740234375,1.1391754150390625,-0.0888214111328125
1718311125452744200,36.850744140625,0.1317291259765625,1.1459808349609375,0.0095672607421875
1718311125502516200,36.90051611328125,0.16278076171875,1.0567779541015625,0.2905731201171875
1718311125552289300,36.95028930664063,0.1087646484375,1.2733917236328125,0.4757080078125
1718311125602062300,37.000062255859376,-0.501800537109375,1.15252685546875,0.20989990234375
1718311125651834400,37.04983447265625,0.4631805419921875,1.18701171875,-0.3990325927734375
1718311125701607200,37.09960717773438,-0.0970306396484375,0.561309814453125,-0.029449462890625
1718311125751381000,37.14938110351562,0.202056884765625,0.27069091796875,0.3560638427734375
1718311125801153000,37.199153076171875,1.90118408203125,2.7137298583984375,1.1377716064453125
1718311125850925800,37.24892578125,-0.5851593017578125,-0.626434326171875,0.277252197265625
1718311125900699000,37.29869897460937,0.2465972900390625,0.0831298828125,0.3997802734375
1718311125950471000,37.348470947265625,0.8783721923828125,1.3034515380859375,0.573516845703125
1718311126000244000,37.398243896484374,0.1607513427734375,0.266815185546875,0.3435821533203125
1718311126050016800,37.44801684570312,0.27960205078125,0.4943084716796875,0.53009033203125
1718311126099788800,37.497788818359375,-0.0749664306640625,1.2980499267578125,-0.2542266845703125
1718311126149561900,37.547561767578124,0.1778717041015625,0.9620819091796875,-0.0701141357421875
1718311126199335200,37.597335205078124,0.0920867919921875,0.904052734375,-0.0236053466796875
1718311126249107000,37.64710693359375,0.02728271484375,1.1524810791015625,0.24188232421875
1718311126298880000,37.6968798828125,0.1160430908203125,1.1204681396484375,-0.066497802734375
1718311126348653000,37.746653076171874,-0.433013916015625,1.13330078125,-0.2469635009765625
1718311126398426000,37.79642602539062,0.4608306884765625,1.1642303466796875,0.223480224609375
1718311126448198100,37.8461982421875,-0.0087127685546875,1.149749755859375,-0.00640869140625
1718311126497971000,37.895970947265624,-0.2857513427734375,1.2846832275390625,-0.1016082763671875
1718311126547744000,37.94574389648437,0.32391357421875,1.2292327880859375,-0.0877227783203125
1718311126597517000,37.99551708984375,0.069488525390625,0.982513427734375,0.01507568359375
1718311126647289000,38.0452890625,0.0269012451171875,1.2563629150390625,0.08050537109375
1718311126697062000,38.09506176757812,0.2390899658203125,0.8641204833984375,0.03692626953125
1718311126746835000,38.1448349609375,0.007049560546875,1.0436248779296875,0.12872314453125
1718311126796608000,38.19460791015625,0.0663909912109375,1.234344482421875,0.235260009765625
1718311126846380000,38.244380126953125,0.058807373046875,1.2297515869140625,0.3756866455078125
1718311126896153000,38.294153076171874,-0.1925048828125,0.979278564453125,0.0795745849609375
1718311126945926000,38.34392578125,0.2813873291015625,1.1200714111328125,-0.161285400390625
1718311126995698000,38.393697998046875,0.147064208984375,0.7738037109375,0.3576507568359375
1718311127045471000,38.443470947265624,0.8804931640625,1.0427703857421875,0.905731201171875
1718311127095244300,38.493244384765624,0.1331939697265625,0.3163909912109375,0.2346038818359375
1718311127145017000,38.54301708984375,0.209259033203125,-0.1897735595703125,0.3245391845703125
1718311127194790100,38.5927900390625,0.3590545654296875,0.27716064453125,0.4718170166015625
1718311127244562200,38.642562255859374,0.4829864501953125,0.7075653076171875,0.5524444580078125
1718311127294335200,38.69233520507812,-0.090850830078125,0.847808837890625,0.1733551025390625
1718311127344108000,38.74210791015625,-0.0923309326171875,1.0393218994140625,-0.0704193115234375
1718311127393881000,38.79188110351563,-0.2626190185546875,1.0289764404296875,-0.050445556640625
1718311127443653000,38.84165307617187,0.3462677001953125,1.2451019287109375,0.00982666015625
1718311127493426200,38.89142626953125,0.0274658203125,1.10400390625,-0.061279296875
1718311127543199000,38.94119897460938,0.142333984375,1.153839111328125,0.090179443359375
1718311127592972000,38.99097192382813,0.0491485595703125,1.13427734375,0.0559539794921875
1718311127642744000,39.040744140625,-0.1332550048828125,1.176666259765625,-0.18426513671875
1718311127692517000,39.09051708984375,0.1181640625,1.49365234375,-0.254638671875
1718311127742290000,39.1402900390625,0.23004150390625,1.2971038818359375,0.3154754638671875
1718311127792063000,39.19006298828125,0.498382568359375,1.0808563232421875,0.082183837890625
1718311127841836300,39.23983618164063,0.151947021484375,1.1545562744140625,0.0097503662109375
1718311127891609000,39.289609130859375,0.1122283935546875,0.890960693359375,0.1819000244140625
1718311127941381000,39.33938110351563,0.1868438720703125,0.9693603515625,0.129791259765625
1718311127991154200,39.389154296875,-0.0683135986328125,1.1845855712890625,0.0623321533203125
1718311128040927200,39.43892724609375,-0.167266845703125,0.9798126220703125,-0.058990478515625
1718311128090700000,39.488699951171874,0.2631683349609375,1.2252044677734375,0.1168060302734375
1718311128140473000,39.53847314453125,0.1042022705078125,0.5812225341796875,0.3138885498046875
1718311128190245000,39.5882451171875,1.6055755615234375,1.1072235107421875,0.848419189453125
1718311128240018200,39.63801806640625,-0.354827880859375,0.4729766845703125,-0.12152099609375
1718311128289791200,39.687791259765625,0.3582916259765625,-0.8115081787109375,0.92559814453125
1718311128339564000,39.73756396484375,0.425872802734375,1.1464385986328125,0.1743011474609375
1718311128389337000,39.78733715820312,0.1288909912109375,0.249237060546875,0.710205078125
1718311128439110100,39.83711010742188,0.01104736328125,0.91937255859375,0.2211761474609375
1718311128488882200,39.886882080078124,-0.0965728759765625,1.1492156982421875,-0.1274261474609375
1718311128538655000,39.93665502929687,-0.095611572265625,1.0388336181640625,-0.214569091796875
1718311128588428000,39.98642797851563,0.161590576171875,1.096038818359375,0.032470703125
1718311128638201000,40.036201171875,0.1801300048828125,1.2606658935546875,0.1825408935546875
1718311128687974100,40.08597412109375,0.1006011962890625,1.0908966064453125,0.022674560546875
1718311128737747500,40.13574755859375,-0.0484466552734375,1.2272796630859375,-0.1358184814453125
1718311128787519200,40.18551928710937,0.19696044921875,1.3269500732421875,-0.1915130615234375
1718311128837292500,40.23529248046875,0.0150299072265625,1.3222198486328125,0.0679168701171875
1718311128887065300,40.2850654296875,0.3074188232421875,1.1212158203125,-0.2332916259765625
1718311128936838400,40.33483837890625,0.1468658447265625,1.2169189453125,0.0657501220703125
1718311128986611500,40.38461157226563,0.19952392578125,1.13006591796875,0.0203704833984375
1718311129036384300,40.43438427734375,0.2320709228515625,1.122711181640625,0.1130523681640625
1718311129086157300,40.4841572265625,0.1138458251953125,1.2350616455078125,0.245849609375
1718311129135929300,40.533929443359376,0.034698486328125,1.25469970703125,0.4162750244140625
1718311129185702400,40.583702392578125,-0.145416259765625,1.184112548828125,-0.182098388671875
1718311129235475200,40.63347509765625,-0.1175537109375,0.782318115234375,-0.0449676513671875
1718311129285248300,40.68324829101562,0.514923095703125,0.636962890625,0.28839111328125
1718311129335021300,40.73302124023437,0.699920654296875,1.2277679443359375,0.4419403076171875
1718311129384794000,40.78279418945313,0.036376953125,-0.586090087890625,0.7926483154296875
1718311129434567200,40.83256713867188,0.4412994384765625,0.457550048828125,0.5428009033203125
1718311129484340500,40.88234057617188,0.30517578125,0.612335205078125,0.104736328125
1718311129534112300,40.9321123046875,0.072113037109375,0.748870849609375,0.3821258544921875
1718311129583885300,40.98188525390625,-0.113189697265625,1.22705078125,-0.204803466796875
1718311129633658400,41.03165844726563,-0.08660888671875,1.075439453125,-0.0759124755859375
1718311129683431400,41.081431396484376,0.169342041015625,0.9524383544921875,-0.139862060546875
1718311129733203500,41.13120336914063,0.1087799072265625,1.1614227294921875,0.0673828125
1718311129782976500,41.1809765625,0.2143096923828125,1.174163818359375,0.0043792724609375
1718311129832749300,41.230749267578126,-0.0148773193359375,1.1169586181640625,-0.0458984375
1718311129882522400,41.2805224609375,-0.2300567626953125,1.199310302734375,-0.4277191162109375
1718311129932295700,41.330295654296876,0.181488037109375,1.4147796630859375,0.237213134765625
1718311129982068500,41.380068359375,0.2388153076171875,1.17138671875,-0.20159912109375
1718311130031840500,41.42984057617188,-0.03424072265625,1.3513946533203125,-0.1149749755859375
1718311130081613600,41.479613525390626,-0.0447235107421875,1.230499267578125,0.051849365234375
1718311130131386600,41.52938671875,-0.000274658203125,1.173797607421875,0.1180877685546875
1718311130181159400,41.57915942382812,0.1875762939453125,0.9237518310546875,0.070953369140625
1718311130230932500,41.62893237304687,0.3379364013671875,0.97882080078125,0.096527099609375
1718311130280705500,41.67870556640625,-0.038482666015625,1.0018463134765625,0.3298187255859375
1718311130330478300,41.72847827148438,-0.1141815185546875,1.0296173095703125,-0.1106719970703125
1718311130380251400,41.77825146484375,0.0348358154296875,1.344482421875,-0.03631591796875
1718311130430024400,41.8280244140625,0.4701385498046875,1.0265350341796875,0.310882568359375
1718311130479797200,41.87779736328125,0.2649993896484375,0.457244873046875,0.4506988525390625
1718311130529570300,41.9275703125,0.0074920654296875,0.1977691650390625,0.908233642578125
1718311130579343600,41.97734350585937,0.39508056640625,0.49169921875,0.2668914794921875
1718311130629116400,42.02711645507812,0.1971435546875,0.5830535888671875,0.203094482421875
1718311130678888400,42.076888427734374,0.1317291259765625,0.8596649169921875,0.3025054931640625
1718311130728661500,42.12666162109375,0.1879119873046875,0.886322021484375,0.0753173828125
1718311130778434600,42.1764345703125,0.1220703125,0.9631500244140625,-0.09326171875
1718311130828207600,42.22620751953125,0.0082244873046875,1.1165924072265625,-0.2772369384765625
1718311130877980400,42.27598046875,0.2704925537109375,0.9279937744140625,0.063262939453125
1718311130927753500,42.32575341796875,0.3248443603515625,1.154510498046875,0.2647857666015625
1718311130977526500,42.37552661132813,0.0531005859375,1.30059814453125,-0.1542816162109375
1718311131027299300,42.42529931640625,-0.221160888671875,1.147735595703125,-0.1317596435546875
1718311131077072400,42.475072265625,0.1391448974609375,1.3087158203125,-0.1460418701171875
1718311131126845400,42.52484545898437,-0.163360595703125,1.1014556884765625,0.3144683837890625
1718311131176618200,42.5746181640625,0.1003265380859375,1.4888153076171875,-0.4102935791015625
1718311131226391600,42.6243916015625,0.3313751220703125,1.366119384765625,0.0204620361328125
1718311131276164600,42.67416455078125,0.3363037109375,1.2864837646484375,0.0214385986328125
1718311131325937400,42.7239375,0.1593017578125,1.0050811767578125,0.1173553466796875
1718311131375710500,42.77371044921875,-0.238250732421875,1.031280517578125,0.4592437744140625
1718311131425483500,42.8234833984375,-0.24920654296875,0.936676025390625,0.16845703125
1718311131475256300,42.87325634765625,0.5389862060546875,1.2801361083984375,-0.3370819091796875
1718311131525029400,42.923029296875,0.3221893310546875,1.1769866943359375,0.067718505859375
1718311131574802400,42.97280249023437,0.0912628173828125,0.5049285888671875,0.3082733154296875
1718311131624575500,43.02257543945313,0.3912200927734375,0.3982391357421875,0.4255828857421875
1718311131674347500,43.07234741210937,0.5409698486328125,0.287689208984375,0.7640838623046875
1718311131724120300,43.12212036132812,0.3720550537109375,0.1459808349609375,0.32598876953125
1718311131773893400,43.17189331054688,0.2075347900390625,0.5096588134765625,0.4518890380859375
1718311131823666400,43.22166650390625,0.04583740234375,0.8218841552734375,0.2794189453125
1718311131873439200,43.271439208984376,-0.0422210693359375,1.210906982421875,-0.037933349609375
1718311131923212300,43.32121240234375,-0.0976409912109375,0.939117431640625,-0.1489105224609375
1718311131972985300,43.3709853515625,0.2115631103515625,1.09539794921875,-0.16766357421875
1718311132022758100,43.42075805664062,0.2196807861328125,1.183135986328125,0.0999298095703125
1718311132072531200,43.47053125,0.2610321044921875,1.1038970947265625,0.0605010986328125
1718311132122304300,43.52030419921875,-0.0125885009765625,1.209625244140625,-0.11322021484375
1718311132172077300,43.57007739257813,0.05029296875,1.3298797607421875,-0.2545928955078125
1718311132221850400,43.61985034179688,0.078094482421875,1.266876220703125,0.053497314453125
1718311132271623400,43.66962353515625,0.085693359375,1.1649322509765625,-0.3855133056640625
1718311132321396200,43.719396240234374,0.2612152099609375,1.2731475830078125,-0.08782958984375
1718311132371169300,43.76916918945312,0.270904541015625,1.3319244384765625,0.0079193115234375
1718311132420942300,43.8189423828125,0.3348846435546875,1.205078125,0.07781982421875
1718311132470715400,43.86871533203125,0.138763427734375,1.186798095703125,0.386138916015625
1718311132520488200,43.91848828125,0.0173187255859375,1.0632781982421875,0.4858245849609375
1718311132570261200,43.96826123046875,-0.1801910400390625,0.9342803955078125,-0.287750244140625
1718311132620034300,44.01803442382813,0.1275482177734375,0.902069091796875,-0.0543670654296875
1718311132669807400,44.067807373046875,0.961334228515625,1.557098388671875,0.0274810791015625
1718311132719580400,44.117580322265624,-0.35174560546875,-0.211395263671875,0.5814971923828125
1718311132769353500,44.167353515625,0.50067138671875,0.30029296875,0.5896453857421875
1718311132819126300,44.21712622070312,0.4166259765625,0.1124267578125,0.2872161865234375
1718311132868899600,44.26689965820312,0.2850189208984375,0.46942138671875,0.4464874267578125
1718311132918672600,44.31667260742187,0.07696533203125,0.8057708740234375,0.3580169677734375
1718311132968445400,44.36644555664063,-0.074371337890625,1.282867431640625,-0.1177978515625
1718311133018218500,44.416218505859376,-0.1248321533203125,1.0622711181640625,-0.2602996826171875
1718311133067991600,44.465991455078125,0.2002105712890625,0.9786834716796875,-0.3383941650390625
1718311133117764400,44.515764404296874,0.262939453125,1.218475341796875,0.1549224853515625
1718311133167537400,44.56553735351562,0.1805267333984375,0.9608917236328125,0.1473541259765625
1718311133217310500,44.615310546875,0.0631866455078125,1.299163818359375,-0.25152587890625
1718311133267083500,44.66508349609375,0.1613922119140625,1.354522705078125,-0.219146728515625
1718311133316856300,44.71485620117188,0.1645355224609375,1.254547119140625,0.0166473388671875
1718311133366629600,44.76462963867188,0.22210693359375,1.20245361328125,-0.219635009765625
1718311133416402700,44.814402587890626,0.22650146484375,1.2439422607421875,-0.26715087890625
1718311133466175500,44.864175537109375,0.42730712890625,1.368988037109375,-0.0897674560546875
1718311133515948500,44.913948486328124,0.2448577880859375,1.1295318603515625,0.2227020263671875
1718311133565721600,44.9637216796875,-0.0415191650390625,1.012969970703125,0.2848968505859375
1718311133615494400,45.01349438476562,0.1126251220703125,1.0910797119140625,0.3404083251953125
1718311133665267500,45.06326733398438,0.0807952880859375,0.9661865234375,-0.161865234375
1718311133715040500,45.11304052734375,0.4600677490234375,1.2644500732421875,-0.2625732421875
1718311133764813600,45.1628134765625,0.281707763671875,0.7220001220703125,0.136871337890625
1718311133814586600,45.212586669921876,0.2816314697265625,0.3809967041015625,0.4835205078125
1718311133864358700,45.26235864257813,0.51617431640625,0.285369873046875,0.6303863525390625
1718311133914131700,45.31213159179688,0.542236328125,0.33642578125,0.46893310546875
1718311133963904500,45.361904541015626,0.4065704345703125,0.29669189453125,0.490570068359375
1718311134013677600,45.411677490234375,0.3284454345703125,0.585113525390625,0.4135284423828125
1718311134063450600,45.46145068359375,0.2044677734375,0.872650146484375,0.11773681640625
1718311134113223700,45.5112236328125,0.0815887451171875,1.1656646728515625,-0.0973663330078125
1718311134162996500,45.56099658203125,0.0350494384765625,0.9939727783203125,-0.234771728515625
1718311134212769500,45.61076953125,0.2187652587890625,0.967620849609375,0.007781982421875
1718311134262542800,45.66054296875,0.277496337890625,1.0191192626953125,0.216766357421875
1718311134312315600,45.71031567382813,0.239990234375,1.1087799072265625,0.0110015869140625
1718311134362088700,45.760088623046876,0.0688018798828125,1.181732177734375,-0.0454254150390625
1718311134411861800,45.80986181640625,-0.1083831787109375,1.1630706787109375,-0.3712921142578125
1718311134461634600,45.859634521484374,-0.0474090576171875,1.2179107666015625,0.0732421875
1718311134511407600,45.90940771484375,0.108001708984375,1.238128662109375,-0.0908355712890625
1718311134561180700,45.9591806640625,0.058074951171875,1.3300018310546875,-0.212310791015625
1718311134610953500,46.00895336914063,0.108367919921875,1.23785400390625,-0.1492919921875
1718311134660726500,46.0587265625,0.1402435302734375,1.283050537109375,-0.00335693359375
1718311134710499600,46.10849951171875,0.206329345703125,1.1397552490234375,0.061065673828125
1718311134760272400,46.1582724609375,0.1284027099609375,1.117523193359375,0.3083038330078125
1718311134810045200,46.20804516601562,0.2082061767578125,1.047119140625,0.4104461669921875
1718311134859818200,46.257818359375,0.0100860595703125,0.8589630126953125,0.0619049072265625
1718311134909591600,46.30759155273437,0.2003631591796875,0.874755859375,-0.0535125732421875
1718311134959364400,46.3573642578125,0.5917816162109375,1.2199554443359375,0.13739013671875
1718311135009137400,46.40713745117188,0.343414306640625,0.560791015625,0.183319091796875
1718311135058910500,46.456910400390626,0.490081787109375,0.0281524658203125,0.5162811279296875
1718311135108683300,46.506683349609375,0.585418701171875,0.3766632080078125,0.6516876220703125
1718311135158456300,46.556456298828124,0.429107666015625,0.1339569091796875,0.455535888671875
1718311135208229400,46.6062294921875,0.50946044921875,0.5870819091796875,0.31292724609375
1718311135258002200,46.65600219726562,0.2588653564453125,0.7443084716796875,0.3574066162109375
1718311135307775200,46.70577514648438,0.10113525390625,1.0274505615234375,0.065032958984375
1718311135357548300,46.75554833984375,0.039794921875,0.9659881591796875,-0.0804901123046875
1718311135407321000,46.805321044921875,0.2475433349609375,0.8026885986328125,-0.2823486328125
1718311135457094400,46.855094482421876,0.2432403564453125,1.005828857421875,0.0511627197265625
1718311135506867500,46.904867431640625,0.3301849365234375,1.2100830078125,0.238677978515625
1718311135556640500,46.954640625,0.082611083984375,1.1475982666015625,-0.026611328125
1718311135606413300,47.00441333007812,0.0171356201171875,1.254150390625,-0.43304443359375
1718311135656186400,47.05418627929687,0.064208984375,1.197784423828125,0.1380767822265625
1718311135705959400,47.10395947265625,-0.0662689208984375,1.188751220703125,-0.0450286865234375
1718311135755732700,47.15373266601563,0.0342559814453125,1.2725830078125,-0.198974609375
1718311135805505800,47.203505859375,0.1079254150390625,1.2795867919921875,-0.1779937744140625
1718311135855278800,47.25327880859375,0.1280670166015625,1.2479248046875,-0.162994384765625
1718311135905051600,47.3030517578125,0.2000885009765625,1.19061279296875,0.0414886474609375
1718311135954825000,47.352824951171876,0.2686309814453125,1.1019134521484375,0.0703582763671875
1718311136004598000,47.402597900390624,0.2418975830078125,1.1423187255859375,0.2662353515625
1718311136054370800,47.45237084960937,0.1604156494140625,1.0439910888671875,0.51580810546875
1718311136104144000,47.50214379882812,-0.2298126220703125,0.79949951171875,-0.0862274169921875
1718311136153917000,47.5519169921875,-0.0106964111328125,0.9501953125,-0.208587646484375
1718311136203689700,47.60168969726563,0.50628662109375,0.9662933349609375,0.15411376953125
1718311136253462800,47.651462890625,1.1123504638671875,1.0451202392578125,0.5734100341796875
1718311136303235800,47.70123583984375,-0.2385711669921875,-0.0948638916015625,0.585662841796875
1718311136353008600,47.75100854492187,0.6817169189453125,0.4809112548828125,0.577545166015625
1718311136402781700,47.80078173828125,0.7009735107421875,0.3310394287109375,0.2584075927734375
1718311136452554800,47.8505546875,0.3288116455078125,0.29754638671875,0.6530609130859375
1718311136502327800,47.90032788085937,0.251220703125,0.7429656982421875,0.162353515625
1718311136552100900,47.95010083007813,0.1668853759765625,1.0903167724609375,0.1721954345703125
1718311136601874000,47.9998740234375,0.2034912109375,1.0042266845703125,0.098052978515625
1718311136651647000,48.04964697265625,-0.0714263916015625,1.073455810546875,-0.040374755859375
1718311136701419800,48.099419677734375,0.213623046875,0.959716796875,-0.1985626220703125
1718311136751192600,48.14919262695312,0.2277984619140625,1.0548553466796875,0.1022186279296875
1718311136800965600,48.19896557617187,0.4417724609375,1.0702362060546875,0.1327362060546875
1718311136850738400,48.24873852539063,0.2778778076171875,1.3246307373046875,0.0961761474609375
1718311136900511500,48.29851147460938,0.04132080078125,1.3275909423828125,-0.3889923095703125
1718311136950284500,48.348284423828126,-0.129669189453125,1.183197021484375,0.0601806640625
1718311137000057300,48.398057373046875,0.0067291259765625,1.2812957763671875,-0.1234893798828125
1718311137049830700,48.44783056640625,0.2277984619140625,1.3253936767578125,-0.092742919921875
1718311137099603700,48.497603759765624,0.1587982177734375,1.2850799560546875,-0.0608367919921875
1718311137149376500,48.54737646484375,0.156646728515625,1.2882232666015625,0.0037841796875
1718311137199149600,48.59714965820312,0.16290283203125,1.1448211669921875,0.0815582275390625
1718311137248922600,48.64692260742188,-0.0386505126953125,1.06536865234375,0.3040313720703125
1718311137298695700,48.69669580078125,0.0537872314453125,0.7512664794921875,0.37109375
1718311137348468500,48.746468505859376,0.1409759521484375,0.720184326171875,-0.1223297119140625
1718311137398241500,48.796241455078125,0.3226776123046875,1.3452301025390625,0.14117431640625
1718311137448014600,48.8460146484375,0.490753173828125,1.118682861328125,0.246307373046875
1718311137497787400,48.89578735351562,0.265899658203125,0.1095428466796875,0.446441650390625
1718311137547560400,48.945560546875,0.36505126953125,0.177490234375,0.58349609375
1718311137597333800,48.99533374023437,0.2781982421875,0.2915496826171875,0.4100494384765625
1718311137647106600,49.0451064453125,0.33062744140625,0.39984130859375,0.577789306640625
1718311137696879600,49.09487963867188,0.2177886962890625,0.6918487548828125,0.416229248046875
1718311137746652400,49.14465234375,0.077117919921875,1.021026611328125,-0.03594970703125
1718311137796425200,49.19442529296875,0.0086822509765625,0.9793548583984375,-0.2555999755859375
1718311137846198500,49.24419848632812,0.20513916015625,0.9277191162109375,-0.0959014892578125
1718311137895971600,49.2939716796875,0.1847076416015625,0.940643310546875,0.3172607421875
1718311137945744600,49.34374462890625,0.304290771484375,1.1968231201171875,-0.0045928955078125
1718311137995517400,49.39351733398438,0.100189208984375,1.1653594970703125,-0.173980712890625
1718311138045290500,49.44329052734375,0.10546875,1.27398681640625,-0.133544921875
1718311138095063600,49.4930634765625,0.046295166015625,1.171539306640625,-0.221893310546875
1718311138144836400,49.54283642578125,0.09613037109375,1.426544189453125,0.135040283203125
1718311138194608400,49.5926083984375,-0.0150146484375,1.4242706298828125,-0.1601409912109375
1718311138244381400,49.64238134765625,0.146636962890625,1.34912109375,-0.142608642578125
1718311138294154500,49.692154541015626,0.2096405029296875,1.2942657470703125,0.03363037109375
1718311138343927300,49.74192724609375,0.2899169921875,1.228668212890625,0.052032470703125
1718311138393700400,49.79170043945312,0.33837890625,1.0889892578125,0.136322021484375
1718311138443473400,49.84147338867187,-0.0946044921875,0.99273681640625,0.4851226806640625
1718311138493246500,49.89124658203125,-0.2031402587890625,0.7795562744140625,0.1157989501953125
1718311138543019500,49.94101953125,-0.0292816162109375,1.0360107421875,-0.17669677734375
1718311138592792600,49.99079248046875,0.7259979248046875,1.3082427978515625,0.064910888671875
1718311138642565400,50.0405654296875,0.2988128662109375,0.5949249267578125,0.2832794189453125
1718311138692338400,50.09033837890625,0.267852783203125,-0.0606842041015625,0.7005157470703125
1718311138742112000,50.140112060546876,0.4157562255859375,0.3125457763671875,0.7541656494140625
1718311138791884800,50.189884765625,0.49462890625,0.1984710693359375,0.5173797607421875
1718311138841657900,50.239657958984374,0.1858062744140625,0.5209808349609375,0.3935699462890625
1718311138891431000,50.28943090820312,0.0627593994140625,0.973602294921875,0.262847900390625
1718311138941203700,50.33920361328125,-0.0727996826171875,1.2107086181640625,-0.099365234375
1718311138990977000,50.38897705078125,-0.11993408203125,1.0429229736328125,-0.1805267333984375
1718311139040750000,50.43875,0.20733642578125,0.9168548583984375,-0.286468505859375
1718311139090523000,50.48852294921875,0.30596923828125,1.073699951171875,0.353790283203125
1718311139140296000,50.5382958984375,0.3341827392578125,1.1840667724609375,0.0929107666015625
1718311139190069000,50.588069091796875,-0.06805419921875,1.2979888916015625,-0.321502685546875
1718311139239842000,50.637842041015624,0.0704193115234375,1.456329345703125,-0.31781005859375
1718311139289614800,50.68761474609375,-0.0481414794921875,1.26141357421875,0.1040802001953125
1718311139339388000,50.73738793945312,0.059814453125,1.206329345703125,-0.20843505859375
1718311139389161000,50.78716088867188,0.0933990478515625,1.4725341796875,-0.015411376953125
1718311139438933800,50.836933837890626,0.1569061279296875,1.3927764892578125,-0.051666259765625
1718311139488705800,50.88670581054687,0.3358917236328125,1.15997314453125,0.0443572998046875
1718311139538478800,50.93647875976563,-0.0962371826171875,1.263885498046875,0.7444610595703125
1718311139588252000,50.986251953125,-0.213226318359375,0.7939453125,0.34423828125
1718311139638025000,51.03602490234375,0.520233154296875,1.2389984130859375,0.0355224609375
1718311139687798000,51.085798095703126,0.37017822265625,0.9567718505859375,-0.2469024658203125
1718311139737571000,51.135571044921875,-0.0891876220703125,0.2422332763671875,0.115814208984375
1718311139787344000,51.18534375,0.4830474853515625,0.184600830078125,0.8032684326171875
1718311139837117000,51.23511694335937,0.2419586181640625,0.13037109375,0.8635101318359375
1718311139886890000,51.28488989257813,0.2368316650390625,0.0059356689453125,0.610198974609375
1718311139936663000,51.3346630859375,0.120025634765625,0.678466796875,0.309295654296875
1718311139986435800,51.384435791015626,0.0099334716796875,0.9269866943359375,0.258514404296875
1718311140036209000,51.434208984375,-0.0488128662109375,1.0980682373046875,0.0314178466796875
1718311140085982200,51.483982177734376,0.0482025146484375,1.274322509765625,-0.29449462890625
1718311140135755000,51.533755126953125,0.4373016357421875,0.6660308837890625,-0.1935577392578125
1718311140185528000,51.58352807617187,0.29644775390625,1.3288726806640625,0.66455078125
1718311140235301000,51.63330102539062,0.3461456298828125,1.262664794921875,-0.0342864990234375
1718311140285074000,51.68307397460938,-0.87005615234375,1.355072021484375,-0.5379791259765625
1718311140334847000,51.73284692382813,0.1519927978515625,1.400360107421875,-0.20989990234375
1718311140384619000,51.78261889648437,-0.055938720703125,1.1544342041015625,0.128662109375
1718311140434392000,51.83239208984375,0.023406982421875,1.2453460693359375,-0.05474853515625
1718311140484164900,51.88216479492188,0.149078369140625,1.53875732421875,0.01055908203125
1718311140533938000,51.93193798828125,0.33477783203125,1.4055023193359375,-0.0762939453125
1718311140583711000,51.9817109375,0.2912445068359375,1.260589599609375,0.227325439453125
1718311140633483800,52.03148388671875,-0.277191162109375,0.87518310546875,0.57000732421875
1718311140683257000,52.081257080078124,0.273345947265625,0.896942138671875,-0.1652679443359375
1718311140733030000,52.13102978515625,-0.15673828125,0.83795166015625,-0.0253448486328125
1718311140782803000,52.18080297851562,0.37896728515625,0.833160400390625,0.082122802734375
1718311140832575700,52.23057568359375,0.7307586669921875,0.6624908447265625,0.6294097900390625
1718311140882348800,52.28034887695313,0.0684051513671875,-0.492279052734375,0.74029541015625
1718311140932121900,52.330121826171876,0.1776275634765625,0.317108154296875,1.0566253662109375
1718311140981894700,52.379894775390625,0.1163787841796875,0.4923858642578125,-0.15130615234375
1718311141031666700,52.42966674804688,-0.059234619140625,1.0204010009765625,0.2497406005859375
1718311141081439700,52.479439697265626,-0.0918731689453125,1.2523956298828125,-0.0228424072265625
1718311141131212800,52.529212890625,0.147247314453125,1.0513458251953125,-0.2893218994140625
1718311141180985900,52.57898583984375,0.369293212890625,0.6537322998046875,-0.1241455078125
1718311141230759000,52.628759033203124,0.466827392578125,1.2281951904296875,0.317779541015625
1718311141280532000,52.67853198242187,0.3126068115234375,1.3059539794921875,-0.208251953125
1718311141330304800,52.7283046875,-0.4096221923828125,1.0750885009765625,-0.01348876953125
1718311141380077800,52.77807788085938,0.001312255859375,1.5945281982421875,-0.35595703125
1718311141429851000,52.82785083007813,0.0118560791015625,0.95355224609375,0.2206268310546875
1718311141479623700,52.877623779296876,0.149078369140625,1.2926788330078125,-0.1152801513671875
1718311141529396700,52.927396728515625,0.0732879638671875,1.522430419921875,-0.0209808349609375
1718311141579169800,52.97716967773437,0.20001220703125,1.331329345703125,-0.0535430908203125
1718311141628942800,53.02694287109375,0.2613067626953125,1.132171630859375,0.2639923095703125
1718311141678715000,53.07671484375,-0.0517578125,0.949066162109375,0.505828857421875
1718311141728487700,53.12648779296875,0.2557525634765625,0.836029052734375,-0.0362701416015625
1718311141778261000,53.176260986328124,0.3697662353515625,1.31256103515625,0.0305328369140625
1718311141828034000,53.22603393554687,-0.156585693359375,0.550994873046875,-0.1032257080078125
1718311141877806800,53.27580688476562,0.34088134765625,-0.138092041015625,0.6629791259765625
1718311141927580000,53.32557983398438,0.329864501953125,0.1884918212890625,0.9615020751953125
1718311141977353200,53.37535327148437,0.084930419921875,0.090606689453125,0.8293609619140625
1718311142027126000,53.4251259765625,0.1977691650390625,0.364105224609375,0.2505340576171875
1718311142076899000,53.474899169921876,-0.0095977783203125,1.169342041015625,0.1179962158203125
1718311142126672100,53.524672119140625,0.0399322509765625,1.4528350830078125,-0.2818603515625
1718311142176445000,53.57444482421875,0.2492218017578125,0.8335113525390625,-0.62091064453125
1718311142226218000,53.62421801757812,0.3475189208984375,0.624969482421875,-0.0556182861328125
1718311142275991000,53.67399096679687,0.381256103515625,1.560638427734375,0.736297607421875
1718311142325763000,53.72376318359375,0.2464752197265625,1.030120849609375,-0.13458251953125
1718311142375535900,53.77353588867187,-0.2845458984375,1.307098388671875,-0.142578125
1718311142425309000,53.82330883789062,0.114227294921875,1.5033416748046875,-0.33941650390625
1718311142475082000,53.87308203125,-0.0824127197265625,1.056182861328125,0.29119873046875
1718311142524854800,53.92285473632813,0.135009765625,1.2823486328125,-0.2975616455078125
1718311142574627800,53.9726279296875,0.196868896484375,1.3166046142578125,-0.1257171630859375
1718311142624401200,54.022401123046876,0.3581695556640625,1.4033355712890625,-0.1156158447265625
1718311142674174000,54.072174072265625,0.421234130859375,1.31597900390625,0.2007904052734375
1718311142723947000,54.121947021484374,-0.0718994140625,0.9733123779296875,0.562042236328125
1718311142773719800,54.1717197265625,0.1430816650390625,0.8772430419921875,-0.0718231201171875
1718311142823492900,54.22149291992187,0.1739349365234375,1.006927490234375,0.012054443359375
1718311142873265700,54.271265625,0.4123077392578125,1.133026123046875,0.0768585205078125
1718311142923038700,54.321038818359376,0.07098388671875,0.0106658935546875,0.38275146484375
1718311142972810800,54.37081079101562,0.4331207275390625,0.0487823486328125,0.7834930419921875
1718311143022583800,54.42058374023438,0.275421142578125,0.1883544921875,0.833221435546875
1718311143072356600,54.470356689453126,0.0969696044921875,0.2214202880859375,0.563720703125
1718311143122130000,54.5201298828125,0.0219573974609375,0.6826629638671875,0.1554718017578125
1718311143171903000,54.569903076171876,-0.019500732421875,1.28948974609375,-0.1390380859375
1718311143221675800,54.61967578125,0.0829315185546875,1.2621917724609375,-0.459320068359375
1718311143271448800,54.66944873046875,0.2888336181640625,0.74774169921875,-0.19940185546875
1718311143321222000,54.71922192382812,0.24847412109375,1.036041259765625,0.6422576904296875
1718311143370994700,54.76899462890625,0.1347198486328125,1.2014617919921875,-0.043609619140625
1718311143420767700,54.81876782226563,0.267852783203125,1.226409912109375,-0.1230316162109375
1718311143470540800,54.868540771484376,-0.0734405517578125,1.6660003662109375,-0.6006317138671875
1718311143520313900,54.91831396484375,-0.0496826171875,1.046051025390625,0.137054443359375
1718311143570086700,54.968086669921874,0.103515625,1.209869384765625,-0.1027374267578125
1718311143619860000,55.01785986328125,0.165802001953125,1.4595184326171875,-0.154449462890625
1718311143669633000,55.067633056640624,0.2935943603515625,1.490875244140625,-0.0832672119140625
1718311143719405000,55.117405029296876,0.236236572265625,1.1685028076171875,0.1034088134765625
1718311143769178000,55.16717822265625,0.0767059326171875,1.3555450439453125,0.5416107177734375
1718311143818951200,55.216951171875,-0.14337158203125,1.0363616943359375,0.292999267578125
1718311143868724200,55.26672412109375,0.0589752197265625,0.8137054443359375,-0.5051727294921875
1718311143918497000,55.3164970703125,0.1801605224609375,0.802001953125,-0.2532958984375
1718311143968270000,55.36627001953125,0.40704345703125,-0.027862548828125,0.4923553466796875
1718311144018043100,55.41604321289063,0.833343505859375,0.949188232421875,1.360504150390625
1718311144067816000,55.46581591796875,-0.1551666259765625,-0.429107666015625,0.6932525634765625
1718311144117589000,55.515589111328126,0.49835205078125,0.59942626953125,0.06524658203125
1718311144167362300,55.5653623046875,0.1651763916015625,0.8966064453125,0.025726318359375
1718311144217135000,55.61513500976562,0.0951385498046875,1.162322998046875,0.031280517578125
1718311144266908200,55.664908203125,-0.1279754638671875,0.9775848388671875,-0.36572265625
1718311144316681200,55.71468115234375,0.3090972900390625,0.925567626953125,-0.176910400390625
1718311144366454000,55.7644541015625,0.25689697265625,1.365325927734375,0.2949676513671875
1718311144416227000,55.81422705078125,0.1028594970703125,0.97265625,0.1722259521484375
1718311144466000100,55.86400024414063,-0.0778045654296875,1.3539886474609375,-0.2633056640625
1718311144515773200,55.913773193359376,0.1843109130859375,1.54571533203125,-0.285491943359375
1718311144565545000,55.963544921875,-0.00811767578125,1.0098724365234375,-0.072265625
1718311144615318000,56.01331811523438,0.200592041015625,1.3045806884765625,-0.1860809326171875
1718311144665091000,56.063091064453126,0.1357879638671875,1.4721527099609375,-0.0294036865234375
1718311144714864000,56.112864013671874,0.300262451171875,1.36932373046875,-0.1397552490234375
1718311144764636400,56.16263647460938,0.4037322998046875,1.181732177734375,0.124786376953125
1718311144814409500,56.21240942382813,-0.2571563720703125,1.0822601318359375,0.6121368408203125
1718311144864182500,56.2621826171875,0.0252532958984375,0.86041259765625,-0.0151824951171875
1718311144913955600,56.31195556640625,-0.0915374755859375,0.968841552734375,-0.0332183837890625
1718311144963728600,56.361728759765626,0.6887054443359375,1.0746307373046875,0.0419921875
1718311145013501700,56.411501708984375,0.2245635986328125,0.2420806884765625,0.436431884765625
1718311145063274500,56.4612744140625,0.1485748291015625,-0.106964111328125,0.9178009033203125
1718311145113047600,56.51104760742187,0.3683929443359375,0.2547454833984375,0.8345794677734375
1718311145162820600,56.56082055664063,0.144775390625,0.243133544921875,0.300750732421875
1718311145212593700,56.61059375,0.0237274169921875,0.7829742431640625,0.29058837890625
1718311145262366500,56.660366455078126,-0.0143890380859375,1.26971435546875,-0.2089996337890625
1718311145312139500,56.710139404296875,0.0474700927734375,1.1393585205078125,-0.391265869140625
1718311145361912600,56.75991259765625,0.4534759521484375,0.659149169921875,-0.42486572265625
1718311145411684600,56.8096845703125,0.0108642578125,1.1967315673828125,0.2569427490234375
1718311145461457400,56.85945751953125,0.5148162841796875,1.3440093994140625,0.058441162109375
1718311145511230500,56.90923046875,0.38946533203125,1.507232666015625,-0.0354766845703125
1718311145561003800,56.959003662109374,-0.667572021484375,1.5341949462890625,-0.495574951171875
1718311145610776600,57.00877661132812,0.06036376953125,1.134918212890625,-0.055145263671875
1718311145660549600,57.05854956054687,0.19512939453125,1.1501007080078125,-0.0802459716796875
1718311145710322700,57.10832275390625,-0.01068115234375,1.4469757080078125,-0.0639190673828125
1718311145760095200,57.15809521484375,0.0889434814453125,1.41229248046875,-0.0735321044921875
1718311145809868000,57.207867919921874,0.127777099609375,1.13775634765625,0.13427734375
1718311145859641300,57.257641357421875,0.232635498046875,1.1740570068359375,0.2500457763671875
1718311145909414400,57.307414306640624,-0.1108551025390625,0.96484375,-0.0208587646484375
1718311145959187200,57.35718725585937,-0.1087493896484375,0.806060791015625,-0.2073516845703125
1718311146008960300,57.40696020507813,0.17779541015625,0.942138671875,-0.128570556640625
1718311146058733300,57.4567333984375,0.864776611328125,0.28912353515625,0.8235321044921875
1718311146108506000,57.506506103515626,0.23199462890625,-0.1298370361328125,0.7442779541015625
1718311146158279200,57.556279052734375,-0.0169677734375,-0.0681915283203125,1.012481689453125
1718311146208052200,57.60605224609375,0.3463287353515625,0.4476318359375,0.3929595947265625
1718311146257824300,57.65582421875,-0.073760986328125,0.946807861328125,-0.001556396484375
1718311146307597000,57.70559716796875,0.1352996826171875,1.055633544921875,-0.158905029296875
1718311146357370000,57.7553701171875,-0.0352935791015625,1.1347198486328125,-0.5405731201171875
1718311146407143200,57.80514306640625,0.3517608642578125,0.75457763671875,-0.064666748046875
1718311146456916000,57.854916015625,0.3871307373046875,1.427764892578125,0.4061279296875
1718311146506689300,57.90468920898437,0.04742431640625,1.27178955078125,-0.1335601806640625
1718311146556462300,57.95446240234375,0.5583343505859375,1.3383941650390625,-0.23284912109375
1718311146606235400,58.0042353515625,-0.415985107421875,1.5728912353515625,-0.165740966796875
1718311146656008200,58.05400830078125,0.177825927734375,1.3386383056640625,-0.34710693359375
1718311146705781200,58.10378125,0.197265625,1.1404571533203125,-0.15338134765625
1718311146755554800,58.15355493164063,0.1614227294921875,1.49627685546875,-0.1634368896484375
1718311146805328000,58.203327880859376,0.1296539306640625,1.3651885986328125,-0.005645751953125
1718311146855101000,58.253100830078125,0.3714447021484375,1.3582000732421875,0.4015350341796875
1718311146904873700,58.302873779296874,0.1175689697265625,1.199920654296875,0.4180145263671875
1718311146954645800,58.352645751953126,-0.2397613525390625,0.6014404296875,-0.46502685546875
1718311147004418800,58.402418701171875,-0.2889251708984375,0.6890716552734375,-0.2459869384765625
1718311147054191900,58.45219189453125,0.4575347900390625,0.4593505859375,0.1649169921875
1718311147103965000,58.50196484375,1.205230712890625,1.32000732421875,1.494384765625
1718311147153738000,58.551738037109374,-0.37799072265625,-0.838348388671875,0.6836700439453125
1718311147203511000,58.60151098632812,0.580841064453125,0.5140228271484375,0.18841552734375
1718311147253284000,58.6512841796875,-0.026885986328125,0.85003662109375,-0.034912109375
1718311147303057000,58.70105688476563,0.09637451171875,1.1242828369140625,0.1285858154296875
1718311147352830000,58.750829833984376,-0.1410675048828125,1.0960540771484375,-0.2310791015625
1718311147402603000,58.80060302734375,0.386505126953125,1.02984619140625,-0.4217987060546875
1718311147452375800,58.850375732421874,0.162261962890625,1.183319091796875,0.0432891845703125
1718311147502148900,58.90014892578125,0.501007080078125,1.1335601806640625,0.4192352294921875
1718311147551922000,58.949921875,-0.470977783203125,1.30462646484375,-0.0912322998046875
1718311147601694000,58.99969384765625,0.591461181640625,1.5624847412109375,-0.6870880126953125
1718311147651466800,59.049466796875,-0.13623046875,1.4324493408203125,0.08001708984375
1718311147701240000,59.09923999023437,0.3489837646484375,1.3682861328125,-0.287322998046875
1718311147751013000,59.14901318359375,0.311553955078125,1.4689788818359375,-0.046142578125
1718311147800786000,59.19878588867188,0.348052978515625,1.2454986572265625,-0.1265411376953125
1718311147850559000,59.24855908203125,0.223602294921875,1.0184478759765625,0.2795562744140625
1718311147900332000,59.29833203125,-0.1316680908203125,0.8707122802734375,0.5065155029296875
1718311147950104800,59.348104736328125,0.15240478515625,1.0638275146484375,0.042633056640625
1718311147999878100,59.397878173828126,0.4185028076171875,1.3081817626953125,-0.11871337890625
1718311148049651200,59.447651123046874,0.0956268310546875,0.43145751953125,-0.002593994140625
1718311148099423200,59.49742333984375,0.4904632568359375,-0.1398773193359375,0.6516876220703125
1718311148149196000,59.547196044921876,0.2867584228515625,0.1124420166015625,0.98193359375
1718311148198969000,59.596968994140624,0.309906005859375,0.250885009765625,0.590789794921875
1718311148248742100,59.6467421875,0.1113433837890625,0.5731201171875,0.29498291015625
1718311148298515200,59.69651513671875,-0.083221435546875,1.16534423828125,-0.075775146484375
1718311148348288000,59.7462880859375,0.0064239501953125,1.0395355224609375,-0.160736083984375
1718311148398061000,59.79606103515625,0.3452301025390625,1.0010833740234375,-0.2520294189453125
1718311148447834000,59.84583422851563,0.213897705078125,1.31689453125,0.058807373046875
1718311148497607000,59.89560693359375,0.290740966796875,0.9523162841796875,0.128814697265625
1718311148547380000,59.9453798828125,-0.1615142822265625,1.323211669921875,-0.12322998046875
1718311148597152000,59.99515209960938,0.440521240234375,1.4396209716796875,-0.33099365234375
1718311148646925000,60.04492504882813,-0.1960296630859375,1.3141021728515625,-0.0806884765625
1718311148696697900,60.09469775390625,0.241973876953125,1.4128265380859375,-0.299896240234375
1718311148746471000,60.144470947265624,0.3253326416015625,1.357818603515625,-0.1630096435546875
1718311148796244000,60.19424389648437,0.3701171875,1.41510009765625,-0.14453125
1718311148846016800,60.24401684570312,0.423309326171875,1.0453948974609375,-0.009765625
1718311148895789800,60.29378979492188,-0.15509033203125,1.0680999755859375,0.5267333984375
1718311148945563000,60.34356298828125,-0.0256500244140625,0.9472503662109375,0.2890472412109375
1718311148995336000,60.3933359375,-0.168243408203125,1.11920166015625,-0.46917724609375
1718311149045108700,60.443108642578125,0.2530517578125,1.1126708984375,0.326263427734375
1718311149094880800,60.492880859375,0.3912811279296875,0.4544219970703125,0.4316558837890625
1718311149144653800,60.54265380859375,0.1094207763671875,0.1514434814453125,0.4320526123046875
1718311149194427000,60.592427001953126,0.329437255859375,0.2198638916015625,0.7837677001953125
1718311149244199700,60.64219970703125,0.1563262939453125,0.251129150390625,0.5337982177734375
1718311149293972700,60.69197265625,0.003021240234375,0.86212158203125,0.2713165283203125
1718311149343745800,60.74174584960937,0.1419525146484375,1.1464080810546875,-0.266021728515625
1718311149393518800,60.79151879882812,0.0231170654296875,0.818939208984375,-0.2762908935546875
1718311149443292000,60.8412919921875,0.174224853515625,1.151458740234375,-0.2121429443359375
1718311149493064000,60.89106396484375,0.230194091796875,1.1539306640625,0.2489776611328125
1718311149542837000,60.9408369140625,0.4473876953125,1.006195068359375,0.175048828125
1718311149592609800,60.99060986328125,0.234100341796875,1.2224884033203125,-0.000152587890625
1718311149642382800,61.0403828125,0.2784271240234375,1.5738372802734375,-0.5233917236328125
1718311149692156000,61.09015600585938,-0.1653900146484375,1.3367767333984375,-0.047088623046875
1718311149741929000,61.139928955078126,0.067169189453125,1.42718505859375,-0.191192626953125
1718311149791702000,61.189701904296875,0.2103729248046875,1.3681488037109375,-0.0549468994140625
1718311149841475000,61.23947509765625,0.4381103515625,1.4552001953125,-0.065643310546875
1718311149891247000,61.2892470703125,0.3004302978515625,1.20916748046875,-0.0420379638671875
1718311149941020000,61.33902001953125,-0.2064971923828125,1.20196533203125,0.525146484375
1718311149990793000,61.38879296875,-0.1337127685546875,0.74102783203125,0.3089141845703125
1718311150040566000,61.43856591796875,0.08807373046875,1.236328125,-0.6796722412109375
1718311150090339000,61.48833911132812,0.1380462646484375,0.940277099609375,0.02923583984375
1718311150140112100,61.53811206054687,0.7193603515625,0.8025054931640625,0.397308349609375
1718311150189885200,61.58788525390625,-0.118011474609375,-0.3232574462890625,0.6779327392578125
1718311150239657200,61.6376572265625,0.3656768798828125,0.177734375,0.70306396484375
1718311150289430000,61.68742993164062,0.2409820556640625,0.35235595703125,0.32379150390625
1718311150339203000,61.737203125,0.048736572265625,0.772430419921875,0.2375335693359375
1718311150388976000,61.78697607421875,-0.0758209228515625,1.2150726318359375,-0.1065216064453125
1718311150438749200,61.83674926757813,0.01300048828125,0.971038818359375,-0.2505035400390625
1718311150488522000,61.88652197265625,0.2020111083984375,1.1556243896484375,-0.4890899658203125
1718311150538295000,61.936294921875,0.212188720703125,1.2675628662109375,0.1862640380859375
1718311150588068000,61.986068115234374,0.4294891357421875,1.0106658935546875,0.6320343017578125
1718311150637840100,62.03584008789063,-0.3551025390625,1.4248046875,-0.5369110107421875
1718311150687613000,62.085613037109376,0.5879058837890625,1.611236572265625,-0.7031402587890625
1718311150737386000,62.135385986328124,-0.0250244140625,1.238861083984375,0.040374755859375
1718311150787159000,62.18515893554687,0.010711669921875,1.40625,-0.0432586669921875
1718311150836932000,62.23493212890625,0.220611572265625,1.5331573486328125,0.031890869140625
1718311150886705200,62.284705078125,0.4372406005859375,1.267303466796875,-0.17596435546875
1718311150936478200,62.33447827148437,0.17047119140625,0.9692230224609375,0.0749969482421875
1718311150986250200,62.384250244140624,-0.1738433837890625,0.9287872314453125,0.570068359375
1718311151036023000,62.43402294921875,-0.0436859130859375,0.851104736328125,0.174560546875
1718311151085796000,62.48379614257812,0.5572357177734375,1.6187744140625,-0.00775146484375
1718311151135569200,62.53356909179688,-0.0471649169921875,0.5738067626953125,-0.1435394287109375
1718311151185342000,62.58334204101563,0.2269439697265625,0.117462158203125,0.3596954345703125
1718311151235115000,62.633114990234375,0.216033935546875,0.0760345458984375,0.80059814453125
1718311151284888000,62.68288818359375,0.3391265869140625,0.2552032470703125,0.975189208984375
1718311151334661000,62.7326611328125,0.291412353515625,0.33966064453125,0.7076568603515625
1718311151384433200,62.78243310546875,0.1285552978515625,0.708465576171875,-0.1154022216796875
1718311151434206000,62.8322060546875,-0.158935546875,1.19940185546875,-0.2329864501953125
1718311151483979000,62.88197900390625,0.0747528076171875,0.9336395263671875,-0.1682281494140625
1718311151533752000,62.931751953125,0.2724761962890625,1.0429840087890625,0.2467498779296875
1718311151583525000,62.98152514648437,0.3070526123046875,1.14691162109375,0.1911468505859375
1718311151633298200,63.03129809570312,0.1901092529296875,1.2693634033203125,-0.1284027099609375
1718311151683071200,63.0810712890625,-0.29425048828125,1.1183013916015625,-0.2901763916015625
1718311151732843300,63.13084326171875,0.34197998046875,1.4566650390625,-0.3096923828125
1718311151782616000,63.18061596679688,-0.24658203125,1.3354339599609375,0.2937774658203125
1718311151832389000,63.23038916015625,0.2195587158203125,1.216583251953125,-0.2193756103515625
1718311151882162200,63.280162109375,0.06402587890625,1.3069610595703125,-0.067413330078125
1718311151931935000,63.32993505859375,0.1026153564453125,1.4614410400390625,-0.0584869384765625
1718311151981708000,63.3797080078125,0.2129364013671875,1.147308349609375,0.0332794189453125
1718311152031481000,63.429481201171875,0.028106689453125,1.0699310302734375,0.339630126953125
1718311152081254000,63.47925390625,0.0826568603515625,0.983551025390625,0.47412109375
1718311152131026000,63.52902587890625,0.1945648193359375,1.1033935546875,-0.072845458984375
1718311152180799000,63.578799072265625,0.0580902099609375,1.156402587890625,-0.1075897216796875
1718311152230572300,63.628572265625,-0.098175048828125,0.5660247802734375,0.0341033935546875
1718311152280345000,63.67834497070312,0.2385101318359375,0.04205322265625,0.506134033203125
1718311152330118100,63.7281181640625,0.5576934814453125,0.3153076171875,1.247467041015625
1718311152379891200,63.77789111328125,0.169647216796875,0.0360870361328125,0.8539581298828125
1718311152429664300,63.82766430664063,0.1495513916015625,0.316375732421875,0.5321044921875
1718311152479437000,63.87743701171875,0.0479583740234375,0.979278564453125,-0.2675323486328125
1718311152529209000,63.927208984375,0.1734161376953125,1.2445220947265625,-0.2986297607421875
1718311152578982100,63.97698217773438,0.17120361328125,0.8514862060546875,-0.4870452880859375
1718311152628755200,64.02675512695312,0.2433624267578125,0.9899139404296875,0.2763519287109375
1718311152678528000,64.07652807617187,0.41033935546875,1.2396087646484375,0.275421142578125
1718311152728301000,64.12630102539063,-0.0961151123046875,1.1419219970703125,-0.2389678955078125
1718311152778073600,64.17607348632812,0.196533203125,1.2570648193359375,-0.196441650390625
