time,seconds_elapsed,z,y,x
1718311088633335000,0.0313349609375,-1.7483903122484683,0.31363179578259587,0.05690855798954144
1718311088683108000,0.081108154296875,-0.848514186900854,1.1509162942692637,1.2926387409903108
1718311088732880600,0.130880615234375,-3.004709639492631,1.2800393716581164,-1.0892694009125232
1718311088782653700,0.18065380859375,-0.14001695797741412,-2.760949398446083,-1.088432365566492
1718311088832426800,0.2304267578125,1.4822925671875475,1.7495803988158702,-0.9980657198123634
1718311088882199800,0.28019970703125,-2.673717689716816,1.5491732695445417,-0.3806321059312671
1718311088931972900,0.329972900390625,4.091187363860011,0.03879647138416767,1.1698957930926233
1718311088981746700,0.37974658203125,0.8988450287342071,-0.5181760248586535,-0.7406086695857346
1718311089031519700,0.429519775390625,-0.22011516156494615,-1.5767250010758638,-2.0070109994269907
1718311089081292500,0.47929248046875,-0.960772784858942,1.1272273756459354,0.38071591175720093
1718311089131065600,0.529065673828125,0.2707107918143272,0.0662491264551878,-0.1103527643367648
1718311089180838700,0.578838623046875,-0.1445148539185524,0.06374152754843235,-0.03881364171467721
1718311089230611700,0.62861181640625,0.7237760465979576,-0.6078834760516881,-0.09576046762168407
1718311089280384800,0.678384765625,-0.3016717472672462,0.3973182331204414,1.002904099754244
1718311089330157800,0.72815771484375,-0.4709223985135555,0.17532909437716007,0.18906711235046386
1718311089379930600,0.7779306640625,1.6629712058991193,0.360671633246541,0.3718852473087609
1718311089429703700,0.82770361328125,0.6226777250796556,-0.6040986968159675,-1.1434038728125393
1718311089479476700,0.877476806640625,1.001250925719738,-0.03795680568963289,-0.11544416919164359
1718311089529250600,0.92725048828125,-1.0102847115248441,0.23449352326840162,1.1420969549324362
1718311089579023600,0.977023681640625,-1.1841285357803106,0.4396165751457214,0.2660023949276656
1718311089628796700,1.026796630859375,0.7792939356803894,-0.28529285939633847,-0.12449812100194393
1718311089678569700,1.07656982421875,0.3900292451560497,-0.2472945526525378,-0.3053727937422693
1718311089728342500,1.126342529296875,-0.920676921314001,0.0481891536295414,0.01876286039799452
1718311089778115600,1.176115478515625,0.023155250138044356,0.03587561550140381,0.3007496639862656
1718311089827888400,1.225888427734375,0.21002456018328666,0.024831951178610322,0.19801416972018776
1718311089877661400,1.275661376953125,0.6445920352458954,0.10887655430436134,0.8832366868443786
1718311089927434500,1.3254345703125,-1.27885323061347,-0.2801438060700893,-1.0419427093312144
1718311089977208300,1.375208251953125,0.8335328908681869,0.2704337284386158,1.6401251678407192
1718311090026981600,1.424981689453125,-0.42187399770617484,-0.0806070298925042,-0.43569121839553115
1718311090076754700,1.474754638671875,0.9931886152952909,0.3359261913076043,0.5317495729852467
1718311090126527500,1.524527587890625,-2.407804069051146,-0.08678396496176718,-1.1258712117966263
1718311090176300500,1.574300537109375,2.1068588824927805,-0.012160393393039703,0.539274780858308
1718311090226073600,1.624073486328125,-0.31374095524549483,-0.021829846753180025,0.23971081952527165
1718311090275846400,1.673846435546875,-0.7513748321413993,0.8687301687166095,0.8755284505546093
1718311090325619500,1.723619384765625,1.488075242242217,-0.07650193266123533,-0.7214185236863792
1718311090375392500,1.773392578125,0.3233411427617073,-0.9259966550320387,-2.726349794229865
1718311090425165300,1.823165283203125,-0.17735913890004157,0.28827362877279517,1.4459025724232195
1718311090474939600,1.872939697265625,1.6481407165139912,0.07315496032088994,0.4040817359060049
1718311090524712400,1.92271240234375,-0.8261030331283807,0.7751181113004684,0.17174612132385372
1718311090574485500,1.972485595703125,-0.28979718507826324,-0.8233435052871704,-1.3942286454178392
1718311090624258600,2.022258544921875,1.2192869429230688,-0.463843838429451,-0.6281503112718463
1718311090674031600,2.072031494140625,-0.2765051573067903,0.38299306290894747,1.0783756664544344
1718311090723804700,2.1218046875,-0.6086766722559929,0.010742343288660049,0.005872545295208692
1718311090773577700,2.17157763671875,0.00978723452091217,-0.015582476796209811,0.19939393364079294
1718311090823350800,2.221350830078125,0.8726087637156248,0.05828735379576683,-0.07062931430079042
1718311090873123600,2.27112353515625,0.23415070118010042,0.08319032438397407,0.05248633936680853
1718311090922898000,2.32089794921875,-0.3660714464634657,-0.20845307308286426,-0.6040156947076321
1718311090972670700,2.370670654296875,0.2166097837924957,0.1553372767060995,0.48149252704046663
1718311091022443800,2.42044384765625,-0.3190250331282615,0.2538558108642697,0.6331461467977613
1718311091072216800,2.470216796875,0.2931996869981289,-0.3538821192368865,-0.3637975101821124
1718311091121989600,2.51998974609375,0.1954348938167095,0.017977555239200593,0.24902707553356884
1718311091171762700,2.5697626953125,-0.3953407955676317,0.004135784630477428,-0.16091726879552007
1718311091221535700,2.61953564453125,0.3513724745035171,0.0916021788984537,0.36276736341677607
1718311091271308500,2.66930859375,0.1595844127565622,0.1860632543593645,0.4520069779023528
1718311091321081600,2.71908154296875,-0.01723521243929863,-0.15038433047384023,-0.2323662289161235
1718311091370856000,2.76885595703125,0.01565700333714485,-0.1447585995465517,-0.5175747710298747
1718311091420628700,2.818628662109375,0.08956512011289595,0.21992811456024647,0.2474660367619246
1718311091470401800,2.86840185546875,-0.15406827968358994,-0.20987579936236142,-0.5935322946161031
1718311091520174800,2.9181748046875,0.3722130179584026,0.10787088439315556,0.19934658736772834
1718311091569947600,2.96794775390625,0.16032500199079514,0.3229720171883702,0.3317481019053608
1718311091619720700,3.017720703125,-1.0423077432513237,0.5556780725181102,0.5313023406744003
1718311091669493800,3.06749365234375,-0.13338438809514044,-0.10428075094670057,-0.23008082139268515
1718311091719266600,3.1172666015625,-0.14371055179834366,-0.1035235028386116,-0.3954544850751757
1718311091769039600,3.16703955078125,0.979926398140192,-0.18252865049242972,0.16442016234993934
1718311091818812700,3.216812744140625,-0.71204060061872,0.17041443432867526,-0.06875190305635333
1718311091868586500,3.26658642578125,0.6736918730020522,-0.09755027364790439,-0.4258027154572308
1718311091918359600,3.316359619140625,0.8321540037304163,0.3214084211334586,-0.1255428808145225
1718311091968132600,3.366132568359375,-0.4778893149167299,-0.4057528839886188,-0.8514626614429056
1718311092017905400,3.415905517578125,0.24944646998941897,0.06718903765380382,-0.20131445337459444
1718311092067678500,3.465678466796875,0.29036826296448703,-0.09527619123607874,-0.24364582088664172
1718311092117451800,3.51545166015625,0.097205990254879,-0.0006757073044776916,-0.06434796900898218
1718311092167224600,3.565224609375,-0.24497253944575786,0.29850451540797945,0.5729441184870898
1718311092216997600,3.61499755859375,0.5056102655351161,0.050798459345102305,-0.1876355451773852
1718311092266770700,3.664770751953125,-0.05893266596198082,-0.03683510818332433,-0.22939890354312956
1718311092316544500,3.71454443359375,-0.2628460497885942,-0.055661973728239535,-0.15469591006264088
1718311092366317600,3.764317626953125,0.15495266130268573,-0.14679507381021975,-0.20103293301947414
1718311092416090400,3.81409033203125,0.15300094271302223,0.10559241806715726,0.1739481614127755
1718311092465863400,3.863863525390625,-0.21385084047317504,-0.05052373405694961,-0.0693268534000963
1718311092515636700,3.91363671875,0.48573827485144133,0.25471067412793635,0.6505847728546709
1718311092565409500,3.963409423828125,0.3574398117184639,-0.16374971574246883,-0.05368044452220201
1718311092615182600,4.0131826171875,0.1698807658433914,0.044853287205100054,0.5320514054760337
1718311092664955600,4.06295556640625,-0.7270306644797325,0.19656068297624588,0.07842486354783176
1718311092714729700,4.112729736328125,-0.08186112160682678,-0.2839928827136755,-0.5628908534411341
1718311092764502800,4.162502685546875,-0.01880582275688648,0.06498655917346477,0.013870558311790227
1718311092814275800,4.21227587890625,0.3597667933613062,0.23375234951227902,0.09257745367139578
1718311092864048600,4.262048583984375,0.1236310558438301,0.0325710209980607,-0.1781735240228474
1718311092913821700,4.31182177734375,0.16477379809319972,0.11423282064050436,0.034858693543821574
1718311092963594800,4.3615947265625,-0.3681049981176853,-0.31811288671940563,-0.3675960256822407
1718311093013367600,4.411367431640625,0.46130350629687306,0.07074439204782247,0.27572423606216906
1718311093063140600,4.461140625,0.11023147604465484,-0.0685518504396081,0.00606236877888441
1718311093112914000,4.510913818359375,0.060931730824708936,0.01113835686892271,-0.019008286526426672
1718311093162686700,4.560686767578125,-0.06966273429095744,0.5140314723998308,-0.020900456948578356
1718311093212459800,4.610459716796875,-0.6547334900319576,0.4400777629166841,-0.8840261567216366
1718311093262233900,4.66023388671875,-0.39551790570020673,0.3204699712395668,0.03001359160020947
1718311093312006700,4.710006591796875,1.1746563585579395,-0.9428387765005231,1.4050401084199546
1718311093361779700,4.75977978515625,1.2105331431031225,0.5176014398410916,1.0633645598053931
1718311093411552800,4.809552734375,-0.4587438849419355,-1.4325786882087588,-1.149581757729873
1718311093461325600,4.85932568359375,-1.1356868686944246,1.2024673255473375,1.1391748569406568
1718311093511098600,4.9090986328125,-0.75077686624825,0.10307166741788387,0.2407772066477686
1718311093560872000,4.958871826171875,0.03577215512692928,0.3394920670956373,0.3429078668884933
1718311093610644700,5.008644775390625,-0.0792635063290596,0.084924893091619,-0.020210501923039553
1718311093660417800,5.058417724609375,0.4456523481786251,0.020959493659436702,0.0367234645023942
1718311093710190600,5.108190673828125,-0.7472124517649412,0.018786241273581982,-0.34561559147723014
1718311093759963400,5.15796337890625,-0.20032734203338623,-0.155567578330636,-0.1024319082096219
1718311093809736400,5.207736328125,0.42773382965028284,-0.12477087352871893,-0.3000936112303287
1718311093859510800,5.2575107421875,0.7663625579148531,0.11860884376764297,0.22719317365977912
1718311093909283600,5.30728369140625,0.07782207534909248,0.26051030031740663,-0.04352086955755949
1718311093959056600,5.357056640625,0.2946650833755731,-0.10592968719750642,-0.18234174961820243
1718311094008829700,5.40682958984375,-0.49284138485491275,0.05981003331840038,0.06806070592179894
1718311094058602500,5.4566025390625,0.002410568273067474,-0.05568126295059919,-0.05440718789417296
1718311094108375600,5.50637548828125,0.38335634326338763,-0.3411994555354118,-0.11684205329082906
1718311094158148600,5.556148681640625,0.6701987701892852,-0.13812106122821569,0.7523110900782048
1718311094207921400,5.60592138671875,0.4783294598996639,0.31212095282822844,0.3004662622013129
1718311094257694500,5.655694580078125,0.4826327100515365,-0.060576926037669176,-0.1001534418836236
1718311094307467500,5.705467529296875,-0.5316285038888454,-0.699054570056498,-1.0120122659698128
1718311094357240600,5.755240478515625,0.6482850445449352,-0.8219996894627809,-0.6427258029825985
1718311094407013600,5.805013671875,0.6692337245494127,-0.4777288636580109,-1.0182070289567113
1718311094456786700,5.85478662109375,-0.03853168296813965,1.1568182117894292,0.05399170242846012
1718311094506559500,5.9045595703125,0.6368021120220423,1.1060130304425955,0.8881524428714066
1718311094556333600,5.95433349609375,-0.3734206401824951,0.8828256218254565,0.18577901232419533
1718311094606106600,6.004106689453125,0.8598936590492725,0.4340639094546437,0.25871715155662967
1718311094655879400,6.05387939453125,-0.7219038229852914,-0.333461262498796,-0.10880427451943978
1718311094705653500,6.103653564453125,-1.012181485056877,-0.43423005980178714,0.6021253509163856
1718311094755426300,6.15342626953125,-0.8258908516824245,-0.3738835815191269,0.6607637831721455
1718311094805199400,6.203199462890625,-0.443586063298583,-0.39968876164406536,0.3027875264894217
1718311094854972400,6.252972412109375,0.1271381871819496,0.20432664080262183,0.4486897431131452
1718311094904745200,6.3027451171875,0.49958852102756496,-0.27987814087122675,-0.46381059374697503
1718311094954518300,6.352518310546875,0.6853501620918512,-0.16591390803903341,-0.12213990397062152
1718311095004291300,6.402291259765625,0.012753683111071586,-0.005043839386105537,-0.644889629952982
1718311095054064400,6.452064453125,-0.33129356307089325,0.6612345424890518,-0.23087957055494188
1718311095103837200,6.501837158203125,0.20861235529780386,0.38544747032374144,-0.49968635537885125
1718311095153610500,6.551610595703125,0.7123387067824601,0.3667649816855788,0.016872443541511892
1718311095203384300,6.60138427734375,0.11432079118490218,0.40759266663640736,-0.04286255177929997
1718311095253157400,6.651157470703125,-0.06870762552320957,0.5482499683439731,0.009017273061722517
1718311095302930400,6.700930419921875,-0.07225158174037932,-0.571799770757556,-0.5173642700843513
1718311095352703200,6.750703125,0.07479483648240566,0.008710252939164638,0.05113718978017568
1718311095402476300,6.800476318359375,-2.0263725563704966,-0.02780921342372894,0.26857787143886086
1718311095452249300,6.850249267578125,-1.2526315786421298,0.46542467788010833,0.03429726026877761
1718311095502022100,6.900022216796875,1.0152338583648204,-0.10501154943928122,0.6122418173916637
1718311095551795200,6.949795166015625,1.799514350286126,0.4610749582380056,0.30872385773584243
1718311095601568500,6.999568603515625,0.8247761684387922,0.9131225604116916,1.2785942874163387
1718311095651341300,7.04934130859375,0.5783370635718107,0.6047668053358793,-0.13365253751203418
1718311095701113600,7.099113525390625,1.23573421985507,0.970588368691504,0.6970650036744773
1718311095750887000,7.148886962890625,0.687635058158636,1.2002426352351903,0.0014487375035881994
1718311095800660000,7.198659912109375,-0.2826981667280197,0.42695349292755125,-0.35188217759132384
1718311095850432800,7.248432861328125,-0.28595395365357396,0.03803746971040964,0.47944151279479263
1718311095900205800,7.298205810546875,0.191526780462265,-0.22603286117613314,-0.24708207894563675
1718311095949980000,7.34797998046875,-1.3668483249306678,-0.3382017350241542,-0.6834780846096575
1718311095999752700,7.397752685546875,1.4757581969827414,-0.5558136815965176,-0.1795601560756564
1718311096049525800,7.44752587890625,-0.3668669807553291,-0.5325055789843202,-0.9666384620219468
1718311096099298800,7.497298828125,-0.001581131711602211,-0.2399184709265828,1.0701813271481544
1718311096149072000,7.54707177734375,-0.5882856261342764,-0.07865034286677837,0.8538788557391613
1718311096198845000,7.596844970703125,0.31365619957149027,-1.6801859600722788,-0.35765009346827864
1718311096248618000,7.646617919921875,-0.3605453765183687,-1.1687605785176158,-0.13230338792540133
1718311096298390800,7.696390869140625,0.38609599736034866,-0.2863172340080142,1.1541785840008407
1718311096348163800,7.746163818359375,0.6841109756857157,-0.4827370472088456,0.3853470786891877
1718311096397937000,7.79593701171875,-1.045028108125925,-0.829358820053935,-0.3160384185329079
1718311096447709700,7.845709716796875,0.8127174818545579,-0.265280291198194,0.6316241248622536
1718311096497482800,7.895482666015625,-0.6847901901215314,-0.24139058930575846,-0.028628859243541954
1718311096547255800,7.945255859375,-0.07601940984129905,-0.10523498293161392,0.6138588241342455
1718311096597028600,7.995028564453125,-0.8528934248983859,-0.10188888737410307,-0.2700388839021325
1718311096646801700,8.0448017578125,-0.26825287726819513,0.7737877394795417,0.4175482434615493
1718311096696575500,8.094575439453125,0.3593944529175758,1.627745578739047,0.307075067615509
1718311096746349300,8.144349365234374,1.5413263554364443,0.9108212977319955,-0.33593729722350835
1718311096796122400,8.194122314453125,0.3476934937298298,-0.4082335948884487,-1.6975534205891192
1718311096845895200,8.243895263671876,-0.39968203964233395,0.8983589987829327,-0.3127801473893225
1718311096895668200,8.293668212890625,1.2306769364655017,0.9319283831685781,-0.6456209399022161
1718311096945441300,8.343441162109375,2.39071381804049,0.8763421050250529,-0.23431341746114193
1718311096995214300,8.39321435546875,0.48238487277030945,1.1972098434105516,0.9941915087275206
1718311097044987100,8.442987060546875,-2.026586491382122,0.008354279108345509,0.548639113792032
1718311097094760400,8.492760498046875,-1.4436094930499792,-0.6405933209985494,-0.7995042184077202
1718311097144533500,8.542533447265624,-0.6407885513097047,-0.18675211340636014,-0.6129536189228296
1718311097194306300,8.592306396484375,1.4977251141190528,-0.9157567083075642,-1.1358718698725103
1718311097244079400,8.642079345703126,0.922409444195032,-0.8057558261483907,-0.526873052990064
1718311097293852400,8.691852294921874,0.49203065299391746,-0.48510962155908344,-0.7457469823222607
1718311097343625200,8.741625244140625,0.4552490285634994,-1.457601193523407,0.09523978648213668
1718311097393398300,8.791398193359376,-1.48118782081604,-1.5979519134998321,0.29681327438540756
1718311097443171300,8.84117138671875,-2.3887357959657907,0.23636925401240585,1.8960569081962106
1718311097492944100,8.890944091796875,-0.8219915061563253,0.7824287265747785,0.826655552444607
1718311097542717200,8.94071728515625,-0.46800972593724727,-0.1272732117384672,-0.42141522108800705
1718311097592490500,8.990490478515625,-3.6268092724233862,0.8160396120145916,0.18180311269685626
1718311097642263300,9.04026318359375,0.5060001416355371,0.4779243862301111,-0.7140480679836124
1718311097692037000,9.090037109375,0.720129214528203,0.871737533839047,-0.6689657212629914
1718311097741810200,9.13981005859375,1.0944681385993957,0.8902654164373874,-1.0967561034061013
1718311097791583000,9.1895830078125,1.053497245785594,0.9768754861369728,0.6660553137090057
1718311097841356000,9.23935595703125,0.5190706356108188,-0.6130138246774673,-1.0660950807478278
1718311097891129000,9.289129150390625,0.5133849911898374,0.014825813210010528,-0.7376043732032179
1718311097940902000,9.33890185546875,0.6494979274660349,0.5111497794836759,-0.11989201544597744
1718311097990675000,9.388675048828125,-0.29438509739041324,-0.23965105216205118,0.4271630440250039
1718311098040448000,9.438447998046875,0.09508183770775794,-0.09441898988485335,0.6005247838519513
1718311098090221000,9.488220947265624,0.005057283389568328,-0.37930093039274215,0.038245851764082905
1718311098139994000,9.537994140625,0.32959026628434657,0.2948720041245222,1.481950621882081
1718311098189767200,9.58776708984375,0.6077899525493383,0.018012626552581786,0.062042176284641024
1718311098239540200,9.637540283203125,-0.4719710307836532,0.3732540514439344,0.6264252410449087
1718311098289313000,9.68731298828125,-0.2213683764964342,0.38214229129850863,-0.049582407219382
1718311098339086000,9.737086181640626,-0.684063629412651,0.4435299491971731,0.4793374313658103
1718311098388859100,9.786859130859375,-1.0888064595758915,0.4854863459169864,0.17945618424452842
1718311098438632000,9.8366318359375,-0.8071481572896242,0.4492851517230272,-0.1022958790061064
1718311098488405000,9.886405029296874,0.36859132032990455,1.2797767751991749,0.16207529799053444
1718311098538178000,9.936177978515625,0.9188748403280973,0.6341682563871145,-0.8089809256747365
1718311098587951000,9.985951171875,2.147750280329585,1.323639297801256,-0.40047070580199357
1718311098637724200,10.03572412109375,0.7052770978331565,0.8565648068875074,-0.8103652196399868
1718311098687497200,10.085497314453125,0.9849784208327531,0.9545131399422884,0.23294766379958018
1718311098737270000,10.13527001953125,-0.5662614258527755,0.17795768931508063,0.033820463936729356
1718311098787043000,10.18504296875,0.26528525963425637,-0.1306201840788126,-0.03687106541269459
1718311098836816400,10.23481640625,-0.20687515624165534,-0.548979451662302,0.13873402376109734
1718311098886589200,10.284589111328126,-0.5434890375524759,-0.7671358803749084,0.15308679436556993
1718311098936362200,10.3343623046875,-0.789895409193635,-0.35477848355472086,0.5996837664505467
1718311098986135300,10.38413525390625,-0.773845022624731,-0.2956570170223713,0.02194463223926723
1718311099035908000,10.433908203125,-0.953728711566329,-0.002874678653478622,0.8265502654392272
1718311099085681200,10.48368115234375,-0.6979232279390096,-0.9481836446598172,0.27205687266103923
1718311099135454200,10.5334541015625,-0.04846154083013534,0.17412264119684695,0.6146134418938308
1718311099185227300,10.583227294921874,1.044983099940419,1.395128955258429,-0.33463432486616074
1718311099235000000,10.633,1.3678034336984157,1.3008242394030094,-0.28293891668133436
1718311099284773000,10.682773193359376,1.7192647555291651,1.3789157793432474,1.2201931710477918
1718311099334546200,10.732546142578125,0.08518529759347439,0.6524693444922566,0.1563592401649803
1718311099384319200,10.7823193359375,-0.3740864106148481,0.00008534019589424133,-0.040108723026514054
1718311099434092300,10.83209228515625,-0.3229536047488451,-0.34749826341867446,0.41593123671896753
1718311099483865300,10.881865234375,-0.0008937339693307876,-0.8620067056804895,-0.16579883029200135
1718311099533638100,10.93163818359375,0.392855993014574,-1.1227008381322026,-0.9061818744283169
1718311099583411200,10.9814111328125,-1.4448603698939084,-0.3412269280642271,-0.22539456327259538
1718311099633184300,11.031184326171875,-0.41655777111947534,-0.43532472317069765,-0.05415105770863592
1718311099682957000,11.08095703125,-0.15660510468482972,-0.4337190415397286,-0.34792854459472
1718311099732730000,11.130730224609374,-1.016570075404644,0.5899401153430343,0.9061427114617079
1718311099782503200,11.180503173828125,-0.3436170380711555,0.6504097816139459,-0.25192447747550906
1718311099832276200,11.230276123046876,1.7724182535678148,0.8531912388011813,1.1043437089908867
1718311099882049000,11.280049072265625,1.3700795619368553,0.40913375859856604,-0.9446412228126079
1718311099931822000,11.329822021484375,1.4386030630648134,0.7646884872227907,0.7146336858518422
1718311099981595100,11.37959521484375,-0.1437871241658926,0.5066135973587632,-0.1322472007587552
1718311100031368000,11.429367919921875,-0.5287853894174098,-0.11631722569912671,0.24663652713522313
1718311100081141000,11.47914111328125,0.1853612435698509,-0.7153758825212717,-0.3445698818165809
1718311100130914000,11.5289140625,0.08327975623309612,-0.6609998569503426,0.2199042222280055
1718311100180686800,11.578686767578125,-0.6813438490599394,-0.6963499872729182,-0.332627442023158
1718311100230460200,11.628460205078126,-0.5988011749297381,-1.2488114358320832,-0.7625075629871338
1718311100280233200,11.678233154296874,-1.5530138706207275,-0.7195873627364635,-0.5127563378974795
1718311100330006000,11.728006103515625,-1.4873562803179026,0.16024024631679057,-0.1325489601843059
1718311100379779000,11.777779052734376,-0.48459319646954535,0.31227205173671246,-0.8778846582919358
1718311100429552000,11.82755224609375,1.975313400262594,1.271238663956523,0.064083472853899
1718311100479325200,11.8773251953125,2.1330326036691662,1.0026137385055423,0.9640393854394554
1718311100529098000,11.927097900390624,1.5390005428373812,0.4798854571700096,0.9553180265843868
1718311100578871000,11.97687109375,0.3318184637278318,0.2745855874210596,0.6704732032164931
1718311100628644000,12.02664404296875,-1.6042156500697136,0.0651285979926586,-0.7979081813879311
1718311100678417000,12.0764169921875,-1.3723673806130885,0.5515618693709373,0.3613863573871553
1718311100728190200,12.126190185546875,0.010918868899345397,0.29365386050641534,1.1528011581677944
1718311100777963300,12.17596337890625,0.11970716039836406,-0.8894465012699365,0.5679086085379124
1718311100827736000,12.225736083984375,-2.391843698853254,-1.0151064325928687,-0.40124738926291464
1718311100877509000,12.275509033203125,-1.5334791490674018,-0.8796621893584727,0.04944982121512294
1718311100927282200,12.3252822265625,-0.49406771177947517,-0.43213761756718155,-0.18791019740030168
1718311100977055000,12.375054931640625,0.3777525319069624,0.7595978860855102,0.39070553698241706
1718311101026828000,12.424828125,1.6708540681034325,1.5326222399771212,0.3303584741778672
1718311101076600000,12.47460009765625,2.549043846821785,1.5440952356278896,0.4807663316577673
1718311101126373000,12.524373046875,0.8639636849671601,1.014945689073205,0.18191767898723482
1718311101176146000,12.57414599609375,1.2801497001647948,0.2428220834136009,0.44362288817763323
1718311101225919000,12.6239189453125,0.02217208431959152,-0.4617424822360277,-0.8582146199211478
1718311101275692000,12.673692138671875,-1.65789697137475,-0.10953472595214843,-0.3781323250047862
1718311101325465000,12.723465087890625,0.09519465043246746,-0.4565484207242727,-0.821747760528326
1718311101375238100,12.773238037109374,0.034443536871671676,-0.34825580378770826,-0.34383374956175683
1718311101425011200,12.82301123046875,0.6157984869599342,-1.092626894646883,0.06691591980084777
1718311101474784300,12.8727841796875,-1.872221859100461,-0.7932406279683113,-1.056065050446987
1718311101524557000,12.92255712890625,-1.6044138029903172,0.005895780040323734,-1.5125816147282718
1718311101574330000,12.972330078125,0.581143353164196,1.1276043922647834,0.7393383573889732
1718311101624103200,13.022103271484376,2.4523230097353457,0.4601695338308811,1.1716526466973125
1718311101673876000,13.0718759765625,1.5035592271000147,0.08223112396299838,0.4847482409007847
1718311101723649000,13.12164892578125,0.07036006890535354,-0.2278641682565212,-0.26790786322280763
1718311101773422000,13.171422119140624,-1.7914643148213625,0.6324211204588412,-0.11518529905974864
1718311101823195000,13.22119482421875,-0.8826286379486322,0.9646744684726,0.7829881140232086
1718311101872968000,13.270968017578125,0.02173427742421627,-0.025684476354718207,0.12349237802550196
1718311101922740000,13.320739990234374,0.1321136375069618,-0.5187433033525943,-0.24404972551241516
1718311101972513000,13.370512939453125,-0.9829127204746008,-0.1916056909173727,0.1273810560271144
1718311102022285800,13.420285888671875,-1.3185913667619227,-0.04803600889444351,0.07220803485959768
1718311102072059000,13.470058837890624,0.018926818788051605,0.4116349277645349,0.13956424577385187
1718311102121832000,13.51983203125,-0.5625426975905895,0.7998480634093285,0.08574687699899076
1718311102171605000,13.56960498046875,1.40919868940413,1.9999305396467446,1.2614222033411264
1718311102221378000,13.6193779296875,2.789012294369936,1.948039608889818,0.1231084932744503
1718311102271151000,13.669151123046875,4.0515784070491785,3.0430268029272556,0.13399755155742168
1718311102320924200,13.718924072265626,3.3738235223919153,3.655180211383104,0.7623311104416847
1718311102370697000,13.768697021484375,-1.752441633465886,2.724702319283783,-3.1118975100576876
1718311102420470000,13.818469970703125,3.612587270325422,2.3063228856950997,-0.9072638975113629
1718311102470243000,13.8682431640625,-1.0441475258991122,1.7890306579336523,-2.374399227577448
1718311102520016000,13.918015869140625,2.6383395023435354,-2.045126356679201,5.6683811514914035
1718311102569788000,13.967787841796875,-0.28061398086510597,1.8261644568026065,0.5857043774694204
1718311102619561000,14.01756103515625,-0.1284288115143776,3.6849484499201175,0.9575696049034595
1718311102669334000,14.067333984375,-2.4591923109829423,-0.3443897760093212,-4.118805438625812
1718311102719107000,14.117107177734376,-5.317526563382148,-0.1948684921056032,-5.17041117157638
1718311102768880000,14.166880126953124,0.41763387591838835,-3.5771757652044296,-11.705872678750753
1718311102818653200,14.216653076171875,-0.2704769465258345,-5.341833321642875,-14.209191716229915
1718311102868426000,14.266426025390626,3.65367682108283,-5.146431745573878,-11.05422546429634
1718311102918199000,14.316198974609375,-3.3248762438714503,2.837649776288867,5.941613570737839
1718311102967972000,14.36597216796875,4.134732491075992,1.6966493113562464,4.948095869618654
1718311103017745000,14.415744873046876,0.48867951593510806,-0.4038286379277706,-0.7272849315017461
1718311103067518000,14.46551806640625,0.6404384226977825,0.14179448904395103,-0.6508505111187696
1718311103117290000,14.5152900390625,0.5006153798572719,0.7622153751075267,-9.964361020100116
1718311103167063000,14.56506298828125,1.3721470158606768,2.4644217360690233,-4.346147628834843
1718311103216836000,14.614836181640625,-3.760706286215782,-5.193308647561073,-0.6320359205335379
1718311103266609000,14.66460888671875,-3.676631872473657,2.6444769821852443,2.1409213110923764
1718311103316382200,14.71438232421875,-5.591985309553146,5.235476056683063,3.7426544966965913
1718311103366155300,14.7641552734375,-1.3236141633599996,1.8326193320304154,-3.4386376476079223
1718311103415928000,14.813927978515625,0.21141046158373356,0.9910779067516327,-0.25519758086204525
1718311103465701000,14.863701171875,-0.4261310706287622,0.15065408732593058,1.6594173128098249
1718311103515474200,14.91347412109375,0.08605623520910739,0.04031389020979404,3.848971429646015
1718311103565247000,14.9632470703125,-2.1007786857962607,-1.6126213671043514,2.3830647645920515
1718311103615020000,15.01302001953125,-1.2384586763828993,-0.6130044723272323,3.434882094466686
1718311103664792000,15.0627919921875,-2.9445675977408885,-7.456921103298663,3.7098575579881667
1718311103714564600,15.112564697265626,-4.715258589124679,0.17340309475064278,0.8603332195103168
1718311103764337700,15.162337646484374,-8.568104229855537,-2.535878660300374,0.839107183869183
1718311103814110500,15.2121103515625,-7.887524350905418,10.114279194366931,-3.204128634509444
1718311103863883500,15.261883544921876,3.1451305020958182,2.864056721699238,-4.423862736678124
1718311103913656800,15.31165673828125,5.448892012870312,3.1196038466513154,3.4918016670405865
1718311103963429600,15.3614296875,2.48377730166316,0.8983633826971054,4.951632227051258
1718311104013202700,15.41120263671875,-8.092824220654368,0.3831763105213642,-6.878312237048148
1718311104062974700,15.460974609375,3.192115540632605,1.3407254571586846,-2.5063416001707313
1718311104112747800,15.510747802734375,-0.48563744482547044,5.91428951048255,-0.362989847061038
1718311104162520600,15.5605205078125,3.8846184970885513,-6.785270965257286,-2.816604357911646
1718311104212293600,15.610293701171875,3.166881146132946,5.381725187048316,0.5507457306824625
1718311104262066700,15.660066650390625,3.580975157487392,2.6248008063346147,-1.7951487024225294
1718311104311839500,15.709839599609374,0.9892314021021127,3.805000770494342,1.1918687746435404
1718311104361612500,15.759612548828125,0.485017632426694,2.3245593841314314,-0.468106318179518
1718311104411384600,15.809384521484375,-2.2606533136710523,-0.09613456163108348,0.062189475800842046
1718311104461157600,15.85915771484375,-5.373715483593941,2.41594704349637,-1.503524740308523
1718311104510930400,15.908930419921875,-5.8228387227535245,1.6266127753168345,-4.463175925412774
1718311104560703500,15.958703369140625,-3.666840254038572,-1.1908704112559556,-1.436861772355437
1718311104610476500,16.0084765625,2.7072505414843557,7.334718618953228,3.5128146444529293
1718311104660249600,16.05824951171875,-7.2294900657624,-11.833174532061815,1.1169584950879214
1718311104710022000,16.10802197265625,0.25063597203493115,-2.565312260055542,0.22754794191420077
1718311104759795000,16.157794921875,-2.2443995134845376,-0.9015081104636192,-2.6497514154568313
1718311104809568300,16.207568359375,-3.6719799550145864,-0.21678747844696045,0.9856658185750246
1718311104859341000,16.257341064453126,-3.6255277081802486,1.7568588653862476,-1.457505916455388
1718311104909114000,16.307114013671875,-3.4517081415832043,0.5328314499378204,-6.170862471351027
1718311104958887200,16.35688720703125,-0.01977327954955399,0.9118412884294986,-1.755771800801903
1718311105008660000,16.406659912109376,3.172359869804978,5.124602191081642,3.9978912405252456
1718311105058432000,16.456431884765625,-1.1477384679507463,-1.7348837649434803,1.004714217916131
1718311105108205000,16.506205078125,-2.4946985086500644,2.8266765468537804,-4.959417474099993
1718311105157978000,16.55597802734375,4.9052621055424215,2.704848156517744,-0.506582690763846
1718311105207751000,16.6057509765625,2.9833669917345045,1.1267542051762343,-1.0783559388406574
1718311105257524000,16.65552392578125,4.837511926874518,1.6724772853910923,-1.8166010941654442
1718311105307297000,16.705297119140624,5.299503415435552,3.5552713919103143,-3.009212796130776
1718311105357070000,16.755070068359377,3.9870898605257272,4.977016259154677,2.0779836472727355
1718311105406842000,16.804842041015625,-0.9404910443305968,1.7064964593708514,2.5328768481358885
1718311105456615000,16.854614990234374,-2.4523548661783336,0.6265495980769396,-1.5631652622789143
1718311105506388200,16.90438818359375,-6.255031869900226,1.220383505988121,-4.769238601115346
1718311105556161300,16.954161376953124,-4.963092947742343,1.928779612624645,-2.654360662817955
1718311105605934000,17.00393408203125,-3.089900782305002,-1.6414824276685713,-1.0084507740959525
1718311105655707100,17.05370703125,4.208805443024635,5.6878977528661485,5.547351218056678
1718311105705479400,17.1034794921875,-7.581151294079422,-8.988279022428394,0.6211597217321395
1718311105755251500,17.15325146484375,-2.2461130394041535,-4.499461290758848,1.456054840864241
1718311105805024500,17.2030244140625,-3.9082811122268435,2.1628858901411294,-2.271666875116527
1718311105854797300,17.25279736328125,-3.8403193366348742,0.10305179367363453,-2.4643933867573735
1718311105904570400,17.3025703125,-4.028993942536413,2.3634786051124332,-1.923597679942101
1718311105954343700,17.35234375,-0.9029600628376007,-0.7652998971194028,-3.669001815986633
1718311106004116500,17.402116455078126,-0.357051689183712,-0.3483230238050222,2.0960987112864853
1718311106053888500,17.451888427734374,4.531605318516492,3.7013147705703973,-0.6792706960476934
1718311106103661600,17.50166162109375,0.17384440877735613,2.129883199727535,-2.7919971553996206
1718311106153434600,17.5514345703125,0.829110690511763,0.9583692308485507,-2.2040704257056114
1718311106203207400,17.60120751953125,2.8966066999092694,4.321007342359423,-1.8301153863854704
1718311106252980500,17.65098046875,3.5177702210336923,2.5226637894183397,-1.2503506280981003
1718311106302753500,17.70075341796875,4.248163639944791,3.1862446027725935,-1.4033216140642761
1718311106352525600,17.750525634765626,4.766506545802951,2.974263063302636,-2.853464892797172
1718311106402298400,17.80029833984375,3.8881975246191023,0.337801045268774,-2.5971520441696048
1718311106452071400,17.850071533203124,-2.0284712822154165,2.5223043084561825,3.125053928750753
1718311106501844500,17.899844482421877,-6.041513037860393,2.888724714487791,2.7287150620564815
1718311106551617300,17.9496171875,-7.857599752762913,2.929025160694122,-6.606538784438372
1718311106601390300,17.999390380859374,-3.735391812217235,-0.11108137087225914,-4.784918985328078
1718311106651162400,18.049162353515626,5.664370746806264,5.943481118175387,1.4351479541748762
1718311106700936000,18.09893603515625,-10.18289504995346,-13.015963928192853,1.0837257953107355
1718311106750708700,18.148708740234376,-1.5752683725267649,-2.7842303207904098,4.050436251276731
1718311106800481800,18.198481689453125,-4.533659328436851,1.646249788200855,-2.8509944110304115
1718311106850254800,18.2482548828125,-4.400112443256378,0.09724164609014987,-3.0231495515465734
1718311106900027600,18.298027587890626,-3.9096740278899667,4.451649153748154,-2.6835890953898427
1718311106949799700,18.347799560546875,0.9107295277953147,-2.806302451866865,-4.872907649904489
1718311106999572700,18.39757275390625,0.34585224977731704,2.6473563370138407,1.640297017276287
1718311107049345800,18.447345703125,4.4739059937417505,2.107093275770545,-0.5952536385159939
1718311107099118600,18.49711865234375,-2.7179432004123925,3.573311490991711,-1.0417922680098564
1718311107148892000,18.546891845703126,4.942361125358939,2.7505472468972205,-2.057983354034275
1718311107198665000,18.5966650390625,1.2798077548593283,3.0499884586334227,0.12294524727044627
1718311107248437000,18.64643701171875,5.53556258058548,3.291491276142001,-2.7425778754532337
1718311107298209800,18.696209716796876,5.188281174787878,4.133466416662931,-2.7597344696983694
1718311107347982800,18.74598291015625,5.680898103237152,2.4415941104501484,-2.334483689035475
1718311107397756000,18.795755859375,-1.4151134664058684,1.5379600938737392,2.19921509462893
1718311107447529000,18.845529052734374,-4.440208014540374,1.7739304116964338,4.413554400892555
1718311107497301800,18.8953017578125,-6.120439275059104,4.713008179849386,-6.380159886303543
1718311107547073800,18.94507373046875,-5.988242050921917,0.3871574891120195,-5.285195488619804
1718311107596846800,18.994846923828124,2.233974857842922,-1.8766724087685345,1.2930439607903361
1718311107646620000,19.044619873046877,-7.944100224608182,-1.171218200802803,-1.2149538821548223
1718311107696392700,19.094392822265625,-4.6447512207031245,-8.937512711787223,5.665170372751355
1718311107746166000,19.144166015625,-5.7808858331650494,2.8133512013345956,0.34437867009341716
1718311107795938000,19.19393798828125,-4.292189828675985,0.7189981646716594,-2.9673411550849673
1718311107845711000,19.243711181640624,-4.301758744271099,2.920043981859088,-4.377316089558601
1718311107895484000,19.29348388671875,-2.5478514221668243,1.2574088760465383,-6.153314539700746
1718311107945257200,19.34325732421875,1.5671359194755554,2.136567792057991,0.8171724885020405
1718311107995030300,19.3930302734375,5.828197619438171,1.8355413569569587,4.067057131209969
1718311108044802000,19.442802001953126,-0.6463163017552346,1.1833727489769459,-0.2446040531932376
1718311108094575000,19.4925751953125,2.8261224201023576,3.9210324572503565,-7.878558954161405
1718311108144348200,19.54234814453125,5.6642947589606045,4.5814708809256555,-0.5081058452105149
1718311108194121200,19.592121337890624,5.474812051546573,3.0089088447481394,-0.7559597487788647
1718311108243894000,19.64189404296875,5.6612488153934475,3.152448131632805,-1.5652897070869802
1718311108293666000,19.691666015625,-0.3340894043345004,2.6295979774832725,2.0160040148302913
1718311108343439000,19.741439208984374,1.527702903753519,1.7115917366832494,-1.6147912584893405
1718311108393212200,19.791212158203123,-5.602699595791101,1.9512527257174253,-2.1309081588611005
1718311108442985000,19.84098486328125,-2.2023568997859955,-0.7851262950956821,-6.5545934931457035
1718311108492758000,19.890758056640625,-7.020082176172733,3.112678431302309,-1.749735881638527
1718311108542530000,19.940530029296873,-5.7297004203289745,-3.5028047070920465,-0.5776391444355249
1718311108592303000,19.99030322265625,-3.153734664312005,-2.294425527152419,1.3263468031942844
1718311108642076000,20.040075927734375,-2.9566297914564608,-2.4486902061909435,4.2033425014436245
1718311108691849000,20.089848876953123,-3.2277088320612903,-2.5208850893080235,1.8528288841053842
1718311108741620200,20.1396201171875,-1.1214613594651222,1.2394839277774095,0.6820739169001578
1718311108791393300,20.189393310546876,0.049472179177403444,2.5933739869356156,-2.7821549758210775
1718311108841166300,20.239166259765625,-1.3779481033548713,2.0365970132648945,-0.7747201980240642
1718311108890939400,20.288939453125,0.18129048699960112,-3.0897499756574627,1.0852638185329735
1718311108940711200,20.338711181640626,-2.0868600505590438,-3.651097910505533,1.366159758144617
1718311108990484500,20.388484375,1.2034838091135025,2.9108184728741646,-5.031498959970474
1718311109040257500,20.438257568359376,1.190617897799611,1.1676947028517723,-0.5963489960046485
1718311109090030300,20.4880302734375,-1.6028706652015448,1.165296994060278,0.05027933084182441
1718311109139803400,20.537803466796873,0.14287000932097435,1.9322680392622946,-3.152037212744355
1718311109189575400,20.587575439453126,1.6057396447665988,0.8353408170729875,1.4437117843806744
1718311109239348500,20.637348388671874,2.0852777498036623,-0.15920096639692782,-1.3161167933419347
1718311109289121300,20.687121337890623,0.9940474240817129,1.211812076997757,-0.551278266656585
1718311109338894300,20.736894287109376,1.0694812891200185,1.151840715637803,-1.376492059327662
1718311109388666400,20.786666259765624,2.145165524533391,3.9084839413225647,-0.25858167034238577
1718311109438439400,20.836439453125,2.101658975762129,2.3105302742570637,0.06540696740946732
1718311109488212200,20.886212158203126,0.9030116468943655,0.33702187758982177,-2.252333813615143
1718311109537985300,20.9359853515625,-0.2796954047154635,0.6042173547595739,0.9016264761462807
1718311109587757300,20.98575732421875,-0.6227559779476374,-0.08996902473866938,0.9077847065150737
1718311109637530400,21.0355302734375,-1.785765810918808,-0.9933838456064462,-1.9317218035563826
1718311109687303400,21.085303466796876,1.1598387286543845,0.7400900525391101,-1.1057226691938935
1718311109737076200,21.135076171875,-0.22600305055975914,-2.4693396109879013,1.3539407664321361
1718311109786848300,21.18484814453125,-0.8417009997546673,-0.2929723079830408,-2.97779883621335
1718311109836621300,21.234621337890626,0.9756734168708324,-0.19487375280261038,-3.6425779194414614
1718311109886394400,21.284394287109375,-2.1442788048267363,-0.6338660585701466,-0.04205108926594257
1718311109936166400,21.33416650390625,-1.647181662223488,0.5344084899961948,-0.9351657576546072
1718311109985939200,21.383939208984376,-1.4002528741434215,0.46740006960630415,1.1036802035808562
1718311110035712300,21.433712158203125,-1.50044401768893,-0.025654081216454506,0.7063043950542807
1718311110085485300,21.4834853515625,-1.2302654330551623,-0.42152386909425255,0.882121565209329
1718311110135257300,21.53325732421875,-0.0011608604729175568,-0.10338614019453525,-0.2745803267240524
1718311110185030100,21.583030029296875,-0.4207324264556169,-0.817745539149642,0.40462651030719277
1718311110234803500,21.632803466796876,0.27023294516950846,0.06506079345345497,-0.04793137947618961
1718311110284575200,21.6825751953125,-0.3327341172680259,-0.16553016941845416,0.1386132286593318
1718311110334348300,21.732348388671873,-0.7263938278809189,-0.6425929703831672,0.4905678869649768
1718311110384121300,21.782121337890626,-0.28249855250269174,-0.41825405364334584,0.8739704074576496
1718311110433894400,21.831894287109375,-0.3596972352564335,-0.3994844712436199,0.43171033206582066
1718311110483666400,21.88166650390625,0.21150983030498027,1.0766016425192355,-0.6128209324538707
1718311110533439500,21.931439453125,-1.4735419822379945,0.6176824010103941,-0.8865309060841798
1718311110583212300,21.98121240234375,-0.3070890961408615,0.9613251580446958,-1.3727151711374521
1718311110632984300,22.030984375,-0.5836947912126779,-0.1533510713249445,-0.4430351514175534
1718311110682757400,22.08075732421875,0.13925854082554578,-0.11118015507161616,1.6955770059496162
1718311110732530200,22.1305302734375,0.5201438178002834,0.11511690999865531,0.8603621533438562
1718311110782302200,22.18030224609375,1.374931093621254,0.059580316215753555,-1.3081181958034633
1718311110832075000,22.230074951171876,1.2567030658647418,1.6330822635918856,-1.4802131305649875
1718311110881848000,22.27984814453125,-0.8061462867707013,1.0912433313339949,-1.3302040631443262
1718311110931620000,22.3296201171875,0.7288973351344465,-0.3574047404050827,-0.25530221028029915
1718311110981393200,22.37939306640625,1.0617772906139493,0.7266285134196281,0.01565758785903454
1718311111031166000,22.429166015625,-0.41264995002597565,-0.2762275094091892,-1.0828747314393519
1718311111080939300,22.478939208984375,-0.281865807557106,1.2702251029998064,-0.24713205556720494
1718311111130711000,22.5287109375,-0.41524113556295633,-0.07185586042106151,0.03744622581899166
1718311111180484400,22.578484375,-0.12702186732590198,-0.3283428965717554,-0.14829115758687256
1718311111230256000,22.628256103515625,0.3759896138876676,-0.5868126309722662,0.4998474642246961
1718311111280029200,22.678029296875,1.1669003376036882,-0.3446779453009367,0.5381278027802705
1718311111329802200,22.72780224609375,-0.4657020335167646,-1.1416080754369498,-1.7801029628515241
1718311111379574300,22.77757421875,1.9690075781166552,-0.7829027738273143,1.3577911582499742
1718311111429347300,22.827347412109376,0.30464287203252316,-0.25791210051774976,-0.34825551152676343
1718311111479120100,22.8771201171875,0.5590191996395587,0.3729039228320122,-1.0718433420762419
1718311111528892200,22.92689208984375,0.08939034806787967,-0.9089952513486146,0.22691519696861503
1718311111578665200,22.976665283203126,-0.6113742407768964,-0.1202022504389286,0.5434560120657086
1718311111628438300,23.026438232421874,0.6311579686552286,0.44239071603417396,-0.7763210573494433
1718311111678210300,23.076210205078127,-0.030502105769515037,-0.30790567322075363,-0.28142595483511684
1718311111727983400,23.1259833984375,-0.17430092037320136,-0.5793962172359228,-1.0938257490426302
1718311111777756400,23.17575634765625,-0.26004852802455425,1.3246096041381359,-0.30518764643371105
1718311111827528400,23.225528564453125,-0.9087216951042413,-0.4967337161183357,-0.39737463948279617
1718311111877301500,23.275301513671874,-0.33326223279535766,0.25349486859738823,0.3318243089467287
1718311111927074600,23.325074462890626,-0.06736907039582729,-0.08960895925462245,0.2695540229946375
1718311111976846300,23.374846435546875,0.1966992146641016,-0.1740904924929142,-0.3856628666400909
1718311112026619400,23.424619384765624,0.20710195073485374,-0.1809779139190912,-0.2643789584442973
1718311112076391400,23.474391357421876,0.45863399482667444,0.35714813529551026,-0.7281669750332832
1718311112126164500,23.52416455078125,-0.4001543333292007,-0.1386626207590103,0.04636135368049144
1718311112175937500,23.5739375,-0.3876344589740038,0.3057335898786783,0.19457827698737382
1718311112225709300,23.623709228515626,-0.46665012802183625,0.09374795875549316,-0.3323646994337439
1718311112275482400,23.673482421875,0.07653262006044387,0.6825163999706506,-0.23879940376877784
1718311112325254400,23.72325439453125,-0.11436901424080133,0.2792693613231182,-0.7920315444394945
1718311112375027500,23.77302734375,-0.043025779516994954,0.17100889309048653,-0.27582214347869155
1718311112424800500,23.822800537109377,0.0002519289344549179,-0.12091069096922874,0.5166667893394827
1718311112474572500,23.872572509765625,0.9265595496118069,-0.3960083195656538,0.2854538951769471
1718311112524345300,23.922345458984374,0.35981881580948827,-0.5747551134318113,0.7844827364951372
1718311112574118400,23.972118408203126,0.9206094090357422,0.037169746965169906,0.009711538936197757
1718311112623890400,24.021890380859375,0.44871816549003124,-0.6261679052829742,-0.6754445618882775
1718311112673663500,24.07166357421875,-0.1763560993373394,0.15137538733780384,-0.1350333243459463
1718311112723436000,24.12143603515625,-0.7721803042829036,0.34771278295218944,-0.5049585236281157
1718311112773209000,24.171208984375,-1.2151327458530663,-0.06128010587096214,0.39019086545854803
1718311112822981000,24.220981201171874,-0.7360816936805844,0.05137713601589203,-0.8916250143527984
1718311112872754200,24.270754150390626,-1.030231228749454,0.19255436994433403,-1.1073086232110858
1718311112922527000,24.32052685546875,-0.9506900745227932,0.11461889734864235,-0.6234004863962531
1718311112972299000,24.370299072265624,-1.0140697830215095,-0.058847325766086575,-0.8805833958566188
1718311113022072000,24.420072021484376,-0.874497646202147,0.27720541453063485,-1.129748564686626
1718311113071844000,24.469843994140625,-0.7283823713496327,0.26075053881406784,-0.7421442085899412
1718311113121617200,24.5196171875,-1.3615502185225485,-0.00744447078704834,0.2783100147716701
1718311113171390000,24.569389892578126,-0.5407623890675604,0.32191841648221015,0.32913638503700493
1718311113221162000,24.619161865234375,-0.4863549454450607,0.28706805237531663,-1.667731259907782
1718311113270935000,24.66893505859375,-0.647203679049015,0.33917642527520653,-0.8328267884254456
1718311113320707000,24.71870703125,0.6872445975363254,0.16706395485699177,-0.6654510642055421
1718311113370480000,24.768480224609377,0.29637247181534765,0.3775771753400564,-1.2395213371783493
1718311113420252200,24.818252197265625,0.12167053289320319,-0.2583943310767412,-0.016860168581828473
1718311113470025000,24.86802490234375,1.7245137620985507,1.3070359535247087,0.4584210827283561
1718311113519798000,24.917798095703127,-0.16123276448547838,-0.9089765466481446,5.74576717351079
1718311113569570000,24.967570068359375,8.463421035587787,0.3468634726464748,-0.18226868438199162
1718311113619343000,25.017343017578124,5.039117618280649,4.147722905552387,-10.908076287174223
1718311113669115100,25.067115234375,1.3342542153179644,-2.0905939763903616,10.147380668979883
1718311113718887400,25.116887451171873,0.9817361509758978,-0.33209260449409483,-6.207544142538309
1718311113768659500,25.166659423828126,-6.997699079450965,-1.4849673393547533,0.47493338772058485
1718311113818432300,25.216432373046874,2.0296580077819524,1.0959265207141637,0.6047051382765174
1718311113868204300,25.266204345703127,0.32361572191938753,0.7601561044901609,1.813550182162225
1718311113917977300,25.315977294921876,1.9594062215566634,3.1760821051985024,1.8028830960668623
1718311113967749000,25.3657490234375,-1.6279033996492622,0.08383505202829837,-1.5234676042713224
1718311114017522400,25.4155224609375,1.4396763913847506,0.04936053549647331,0.6465237339608371
1718311114067294200,25.465294189453125,0.5129338133562356,0.5755769512087107,-0.6197117148809135
1718311114117067300,25.5150673828125,-1.4802857574097812,-2.2806331486433744,-1.4720596347257493
1718311114166840300,25.56484033203125,0.0191002756588161,0.3183089938133955,-0.10805836978927254
1718311114216612400,25.6146123046875,-0.816764053831622,-1.121554882967472,-0.14359437807276845
1718311114266385400,25.664385498046876,-1.7198136215835809,-1.5296686508685349,1.6514152081400155
1718311114316157400,25.714157470703125,-0.9920364495854824,-0.16123334900736808,-1.6608983451478183
1718311114365930200,25.76393017578125,-0.42110608207359906,-1.3371931913793087,0.28047186898067594
1718311114415702300,25.813702392578126,0.5573579884290695,-0.3961673095196485,-0.8739106400944292
1718311114465475300,25.863475341796875,0.3327992914587259,-0.3513648757189512,-0.7610169591031968
1718311114515247400,25.913247314453123,0.11699848596155643,0.18813596898019314,0.9007621144019067
1718311114565020400,25.9630205078125,0.87186685930714,0.5882593226492404,-0.15296820948719977
1718311114614792400,26.01279248046875,-1.2200105810225008,1.0713567276030778,0.051314299912750716
1718311114664565200,26.062565185546877,-1.6255632662639021,1.11008890157938,1.3235150868996977
1718311114714338000,26.112338134765626,-0.6194463419429957,0.2543850954353809,0.31354937819615003
1718311114764111000,26.162111083984374,0.5944412261545657,0.6573311053097247,0.8570468913160264
1718311114813883100,26.211883056640627,1.1998483752205966,-0.25599662228524683,-1.1346519726887345
1718311114863656000,26.261656005859376,0.9365173183940351,0.5000590611487626,-0.8530134710814803
1718311114913428000,26.311427978515624,0.7918896517507732,0.00924304464161396,0.7359734110005199
1718311114963200000,26.361199951171876,-0.5356767563663423,-0.07615092726647854,-0.959404199919477
1718311115012973000,26.41097314453125,-0.4968780199598521,-0.35649171721339223,0.03846208833064884
1718311115062745000,26.4607451171875,0.9242653742600232,0.11719196270704269,0.3358723422285169
1718311115112518100,26.51051806640625,0.2675613878726959,0.0544499675899744,-0.4655142193270847
1718311115162290200,26.560290283203123,-0.18099661861956118,-0.20364567280113696,-0.19950802500713616
1718311115212063000,26.61006298828125,-0.4717553056737408,-0.7694055788725614,-0.006003843524679541
1718311115261835000,26.6598349609375,0.7418962982434779,-0.056551908305287356,-0.47992180712502447
1718311115311608000,26.709608154296873,0.5200643228232861,0.5313432572066784,-0.4616845415037125
1718311115361380000,26.759380126953126,2.4629946258753534,-0.619168840175867,0.7572128175798803
1718311115411153200,26.809153076171874,0.41831309035420416,1.1370482201755046,-1.270453358797729
1718311115460925200,26.85892529296875,0.16325637926757336,-0.9994067591577768,0.4142608923539519
1718311115510698000,26.908697998046875,-1.0326344904989004,-0.05086275675296783,-1.3560031057894228
1718311115560470000,26.958469970703124,0.1977741504192352,0.4020025915443897,-0.8288605151429772
1718311115610243000,27.0082431640625,0.06743396145873702,-0.14153963750004767,1.8394009549945591
1718311115660015000,27.05801513671875,0.13050503326654433,-0.4098568121761083,0.22613135311454532
1718311115709786400,27.107786376953126,-1.4768822325766087,-0.18400573730766773,-1.3592606462806462
1718311115759559400,27.157559326171874,-0.8565911103725433,-0.41403965081870553,-1.2256564779549837
1718311115809331500,27.20733154296875,-0.819783766978979,0.08392273031175136,0.20891922928988932
1718311115859104500,27.2571044921875,0.11870412083566188,-0.044669162809848784,0.837060334341973
1718311115908876500,27.30687646484375,-0.24899580361247062,0.24628654465377328,-0.4333437419539317
1718311115958649300,27.3566494140625,-0.39455870527923104,-0.5728910731256008,-0.37258795221801844
1718311116008421400,27.40642138671875,0.42629875534586603,0.27635610422492024,-0.5431671851869673
1718311116058194400,27.4561943359375,0.5040619401145726,-0.0129448217689991,-0.19216182696279138
1718311116107966500,27.505966552734375,-0.877040462552756,-0.24376959339678286,-0.15191815244499593
1718311116157738200,27.55573828125,0.2985695434682071,0.1456032336771488,0.4065235030349344
1718311116207511600,27.605511474609376,-0.5918757595807314,0.47692134666740893,-0.7523693961367011
1718311116257283300,27.655283447265624,-1.2804613964624703,0.01741173804998398,1.6222938892044125
1718311116307056400,27.705056396484373,-0.40442645769044755,0.4298135585337877,0.3108108931429684
1718311116356828200,27.754828125,-4.676486083137989,0.16299100632965563,-0.29834126940397543
1718311116406601500,27.8046015625,-0.7774841097794473,-0.7671621838599443,0.28515180695783343
1718311116456373200,27.854373291015627,1.122819203814864,-0.03796586577892303,-1.306384503878653
1718311116506146300,27.904146240234375,2.0519497729584573,0.9290554580807685,-1.1877816514603794
1718311116555918300,27.95391845703125,3.848450328381359,1.6547259401232004,-0.43019477640371767
1718311116605690400,28.0036904296875,2.453708326613903,1.0757342120349407,-1.0152284515373409
1718311116655463200,28.053463134765625,2.773741660001874,-1.4194938734471798,0.0024989041436463593
1718311116705235200,28.103235107421874,3.0494764174580573,2.832846759921312,-2.2569491984561085
1718311116755009300,28.15300927734375,0.6569488279938698,-0.37763971918225286,1.8304620078660547
1718311116804781300,28.20278125,1.0627214395962654,0.23454116180241105,1.1867092729885131
1718311116854553300,28.25255322265625,1.6468278803497551,1.9511153630733489,0.3424598308600485
1718311116904326100,28.302326171875,-0.9156921917039901,0.40161797614097594,0.0026803251251578328
1718311116954098200,28.35209814453125,-3.610395605500042,-1.492495396772027,-1.1192927832543849
1718311117003871200,28.401871337890626,-1.2443807599082588,1.6275591162562368,-3.0940625781595705
1718311117053643300,28.451643310546874,0.1583624697461724,1.0910153677970171,-1.0434759102478623
1718311117103415300,28.501415283203126,-2.4018144732475277,-0.8177817795068025,1.0131330866932868
1718311117153188400,28.551188232421875,-0.10712123506963252,1.976008981311321,1.1005880827844143
1718311117202960100,28.600960205078124,5.0709144400358195,7.0153872963547705,3.7069840483784673
1718311117252733200,28.650733154296876,-5.887493858015537,-5.458242609539628,-1.4224711356922983
1718311117302505200,28.700505126953125,2.360166704085469,-0.0418757326990366,-1.185541325187683
1718311117352277200,28.75027734375,-2.1935440632551906,-0.732661948364973,-1.5106693513661622
1718311117402050300,28.80005029296875,-0.7958332748100161,-3.257197376874089,0.6138885616853833
1718311117451822300,28.849822265625,-0.7476151873469352,-1.008998178845644,-1.4354370002493262
1718311117501595100,28.89959521484375,-0.6063385846972466,-0.8175356957912444,-1.436196294184029
1718311117551367200,28.9493671875,-1.6133543575540183,-1.5921207231283188,0.968732511691749
1718311117601139200,28.99913916015625,-2.4401465419903396,-0.40261107883155345,1.2319549935773015
1718311117650912300,29.048912353515625,-4.269242376069724,0.4824731355756521,-0.8994660832419991
1718311117700684300,29.098684326171874,-2.472461250139773,1.9279566058039663,-1.884486735781282
1718311117750455300,29.148455322265626,-2.4426103017553684,1.9127011690050362,-2.9225007273614403
1718311117800228400,29.198228271484375,-0.309918328217417,0.7935568543106317,-2.4167490075290203
1718311117850000400,29.24800048828125,-0.40569910797476766,1.3335814306229352,-0.2305442741859704
1718311117899772400,29.2977724609375,0.9601058453828096,-0.02295417460799217,0.391968067731522
1718311117949545500,29.34754541015625,0.08350720831342041,1.1552940709620714,-0.0569606352366507
1718311117999317500,29.3973173828125,1.98244515183866,1.217285539972782,-0.6199790605802089
1718311118049090300,29.44709033203125,0.5389699526928365,1.6195383068859577,-1.8180013163521884
1718311118098862300,29.4968623046875,1.9535446360468862,0.050478141349554057,1.898712098880112
1718311118148634400,29.54663427734375,1.667544797424972,1.6464391732931136,-2.955323385033011
1718311118198407400,29.596407470703124,4.3379321736752985,1.4920669422268866,0.20300554826669392
1718311118248179500,29.646179443359376,5.188844069367647,2.2941800279587508,0.774202676955983
1718311118297951200,29.695951171875,3.7644276448264717,2.0508453188478946,0.5432520869914442
1718311118347724500,29.745724609375,4.3605520017623896,1.783939764535427,-0.4545171340923756
1718311118397496300,29.795496337890626,-0.5568675745636225,-0.43553485879004,0.8273289947267621
1718311118447268400,29.845268310546874,-3.3360558095335957,0.18891513665914533,1.037732398159802
1718311118497041200,29.895041259765627,-4.301626350063085,1.619782052513957,1.7180077412053942
1718311118546813200,29.944813232421875,-5.442215603846312,1.951424575152993,-2.022786660707742
1718311118596585200,29.994585205078124,1.2892027751922606,2.2555723571449517,-1.666650625064224
1718311118646358300,30.044358154296877,0.32447306940108533,1.9526666841685771,0.09508183770775794
1718311118696130300,30.09413037109375,-5.290361493080854,-2.762424731695652,2.022453921622038
1718311118745902600,30.143902587890626,-1.057820077420771,-1.785896159300208,-1.0610217960715294
1718311118795675400,30.19367529296875,-0.7615203785806894,-1.7299375407129525,-3.834932967421412
1718311118845447400,30.243447509765623,-1.9794740270733833,-2.207018461856246,-0.7140545707896352
1718311118895220500,30.293220458984376,-1.873896514314413,-0.8768979853421449,0.2151791664674878
1718311118944992500,30.342992431640624,-1.6134224543541669,0.7392553552806377,-0.23997955346405506
1718311118994764500,30.3927646484375,-2.9115158074885605,1.433975403264165,2.1195260563641787
1718311119044537600,30.44253759765625,-0.9882935367301106,3.611536299967766,-1.634370988228172
1718311119094309600,30.4923095703125,1.3401064484775065,1.3336480661183594,-0.044769554444402455
1718311119144081700,30.54208154296875,1.2095030694030224,-2.8598662842720746,1.393552061330527
1718311119193854500,30.5918544921875,-0.22489698901399968,0.045907764694094653,-1.171030715406686
1718311119243626500,30.64162646484375,-0.6669711133796721,-2.8345138163506984,-1.4873974891111255
1718311119293398500,30.6913984375,-0.38109541259408,0.23223405390381813,-1.9532287019655108
1718311119343171600,30.741171630859377,0.6295400120645761,2.558656309297681,-2.8656682485491034
1718311119392943600,30.790943603515625,2.5302578978091477,1.9825299075126648,2.201995665258169
1718311119442715600,30.840715576171874,-0.3653904784619808,1.7476175743103026,-0.357697001349926
1718311119492488700,30.89048876953125,0.6224206815786659,1.6483663419634103,-0.7997988174401223
1718311119542260700,30.9402607421875,1.2589688188396393,1.0083598809421062,1.0111454200074077
1718311119592032800,30.99003271484375,0.9194355429507791,-0.4240133478224277,-0.14995032297074795
1718311119641805600,31.0398056640625,1.542889366969466,-2.0045710589289665,-1.1493654115654528
1718311119691577600,31.08957763671875,0.5829372508436441,-0.3547498419821262,0.11338245088886469
1718311119741350700,31.1393505859375,1.9221325758256016,-0.08268295938372612,-0.7040561777360737
1718311119791122700,31.189122802734374,4.201213672721385,1.6497387993603945,-0.26325309621952475
1718311119840894500,31.23889453125,2.6712282109886405,1.798643412670493,-0.2607275232646614
1718311119890667800,31.288667724609375,1.0582008934319018,-0.12498188593089579,1.4176909156784414
1718311119940439600,31.338439453125,-3.055907327288389,2.108262319549918,2.2486079249598085
1718311119990211600,31.388211669921876,-4.580635306884348,2.447749710470438,-2.843137852311134
1718311120039984400,31.437984375,-2.793217052583396,2.860392938494682,-2.958013354769349
1718311120089756400,31.48775634765625,-0.10913023680448532,1.645627272388339,-1.5223957372561097
1718311120139529500,31.537529541015626,1.0042898550242185,1.1704986543565987,1.613905269435048
1718311120189301500,31.587301513671875,-7.041153021252155,0.15113924049437044,2.4029195118799804
1718311120239073500,31.637073486328124,-2.9566251152813434,-6.533872776678204,2.3343469109132884
1718311120288846600,31.6868466796875,-1.6896435242474077,0.10599193877875804,-3.0337372887954115
1718311120338618600,31.73661865234375,-2.6961843730688093,-3.967938585332036,1.5872124928206204
1718311120388390700,31.786390625,-1.1637763603642581,-2.5360306359916924,0.9174778330117463
1718311120438163500,31.83616357421875,-1.005458314281702,-0.1015273605853319,-2.97493614025861
1718311120487935500,31.885935546875,-1.3335776312306522,2.4163480255126952,-2.1241599997751415
1718311120537707500,31.93570751953125,-2.9514699244752522,-0.15848609612584114,-0.7658808388125151
1718311120587480600,31.98548046875,-2.55341723960042,1.23204121055603,-0.7251564681056887
1718311120637252600,32.03525268554687,0.08378770575523375,2.9643028103023767,-0.8163400562658906
1718311120687025700,32.08502563476563,1.0375134947121143,0.8942816663414239,-0.6691077600821852
1718311120736797400,32.13479736328125,0.6129355718094855,-0.56878948302567,-0.854888982629776
1718311120786569500,32.184569580078126,0.6956416928730904,0.8999930297255515,-1.5235291252002119
1718311120836342300,32.23434228515625,1.839744653865695,2.253544066187739,-0.07839341809679753
1718311120886114300,32.2841142578125,2.820244760240614,2.854771006959677,0.4169206861477345
1718311120935887400,32.333887451171876,4.581379695510864,0.597891074347496,-1.661324899996817
1718311120985659400,32.38365942382813,2.7192417157903312,2.136990985906124,-0.9578056056164205
1718311121035431400,32.43343139648437,4.552109469623863,1.658143055090308,-0.3395629038421437
1718311121085204500,32.48320458984375,4.1477550542563195,1.2439987748533488,-0.21013916300628332
1718311121134976500,32.5329765625,1.7812550554960964,0.850929431349039,0.45499286184534427
1718311121184749300,32.58274926757812,-1.589984880143404,1.4022387872636317,3.266421716815233
1718311121234521300,32.632521240234375,-5.597208597159385,2.8437901787400244,2.037321235886216
1718311121284294400,32.68229443359375,-6.337496802619099,4.20472957188785,-5.904354391923547
1718311121334066400,32.73206640625,-4.208653759594261,-1.269168287423253,-2.888087001106143
1718311121383838500,32.78183837890625,0.5315624529153108,-1.5638883158564567,-1.4483791916698217
1718311121433611500,32.83161157226562,-0.9883657251834869,9.95269863935709,-0.1285302260622382
1718311121483383300,32.88138330078125,-11.153161639344692,-12.727417035436629,4.369728703169525
1718311121533156400,32.93115625,0.6081289752453565,-1.2265355988770723,-0.43487230322808024
1718311121582928400,32.980928466796875,-4.057715886890888,1.2352724475622177,-5.059229847460985
1718311121632700400,33.03070043945313,-0.09015490269958973,-2.4709961460232734,2.343943299037218
1718311121682473500,33.08047338867188,-2.133039325670898,0.20148060372173784,-0.5707303879603743
1718311121732245800,33.13024584960937,-2.799771004271507,1.7841946160793303,-1.2340715473398565
1718311121782018600,33.1800185546875,-1.4385412498749792,0.26343758594095706,-3.7007857782602307
1718311121831790600,33.22979052734375,-0.04768642827179283,2.837868971997499,-2.832836238527298
1718311121881563600,33.27956372070312,1.1483937900543213,0.1768786619067192,1.3541441800497471
1718311121931335700,33.329335693359376,-0.42732890211120245,-0.01872866586744785,0.42365028666369614
1718311121981108700,33.379108642578124,2.111293065547943,3.489379408329725,-1.3556165906898676
1718311122030880500,33.42888061523438,3.690246264067292,3.1625515924960372,0.8494517600119114
1718311122080653600,33.478653564453126,4.392304399853945,-1.0012848279893398,-0.7085941134266555
1718311122130425300,33.52842529296875,2.9497832865625617,3.080978055658936,-1.1358955430090427
1718311122180197400,33.578197265625,5.265642062366008,3.6065345461577176,-0.3081464597066864
1718311122229970400,33.62797045898437,5.308938183256983,2.2982833716243505,-0.8125761736877262
1718311122279742500,33.677742431640624,-1.266093117761612,0.854754542595148,2.645946762476861
1718311122329515500,33.727515625,-3.159271547912061,2.768462842816114,4.202447013908625
1718311122379287600,33.77728759765625,-7.698292403382062,2.587171040642261,-3.43302857555449
1718311122429060400,33.827060302734374,-6.798420369687676,1.8439865292191504,-6.021631110304594
1718311122478832400,33.876832275390626,-4.06148020786047,-3.076922058266401,-2.708246274523437
1718311122528605400,33.92660546875,9.829477917879819,5.403393998020887,4.351122494637966
1718311122578377500,33.97637744140625,-10.168863017469643,-7.918543174025416,0.6208999017521739
1718311122628150500,34.02615063476563,-3.323013664869964,-10.129074612438679,4.108839340406656
1718311122677922600,34.07592260742187,-4.018443614688516,4.1102117978036405,-4.1236096240371465
1718311122727695600,34.12569555664062,-1.3743126694619654,1.4761363826453684,-0.485160767224431
1718311122777467600,34.175467529296874,-1.4054676861822604,-0.9928039998918771,-0.39254371219500894
1718311122827240700,34.22524072265625,-0.6992953200098126,2.5156115328192707,-3.566106089657545
1718311122877012700,34.2750126953125,0.602104344660975,2.5784716013580558,-2.101809782409668
1718311122926785800,34.324785888671876,2.8993671045333147,1.0136837063133717,2.2625527175515887
1718311122976557600,34.3745576171875,-1.6500065103858708,1.2467203087717293,-2.263471439831704
1718311123026330600,34.42433056640625,2.0898824671201406,1.5913614291936158,-0.13425567277064546
1718311123076102400,34.47410229492188,3.9343563414648175,3.2141321421295403,-0.8315032847367226
1718311123125875700,34.52387573242188,5.263154921725392,0.4726730415731668,-0.4797532821577042
1718311123175647500,34.5736474609375,3.47946650160253,0.5500526338517665,-1.5538893382810055
1718311123225420800,34.6234208984375,3.256835557824373,2.9410505295306444,-1.572964479498565
1718311123275192600,34.673192626953124,5.524069711190462,1.293767891150713,-0.07964373781830072
1718311123324965600,34.72296557617187,0.10218735886402427,2.413013912653923,2.166694634774327
1718311123374737400,34.7727373046875,-4.6587174944743515,3.1487931162565945,2.6737892936483023
1718311123424510700,34.8225107421875,-5.192354707837104,3.1911364664673805,-5.308597406995296
1718311123474282500,34.87228247070313,-5.005716868460178,-0.44571430749893187,-3.637311377215385
1718311123524055800,34.92205590820313,-0.31606209166944027,0.023377368456125258,-0.5024307587161659
1718311123573827600,34.97182763671875,-4.538802536544203,0.2881055787295103,2.3539985368445513
1718311123623600600,35.0216005859375,-7.811609570482373,-10.0555534491539,5.880111346548795
1718311123673372400,35.07137231445312,-1.4195765832945704,-3.296793474203348,0.03096943102031946
1718311123723145200,35.12114526367188,-3.4836356039807197,1.7318465892046688,-2.595862588880956
1718311123772918300,35.170918212890626,-1.7491352853968738,1.0103963552057742,-0.1555599795460701
1718311123822690300,35.22069018554687,-2.621510532617569,0.1895803225696087,-0.9916193932171911
1718311123872463000,35.27046313476563,-2.3871556871674953,1.4955810878276825,-2.520948802193999
1718311123922235100,35.32023510742187,-1.061537344378233,1.128061780643463,-3.6149408477142453
1718311123972008200,35.37000830078125,3.6267952438980338,3.605734920212626,2.365921906611323
1718311124021780200,35.4197802734375,0.6349966700352728,-0.4600777638942003,1.4676862419471144
1718311124071553300,35.46955322265625,1.3586695485197007,2.3963754970639943,-2.55364052696228
1718311124121325300,35.5193251953125,2.8855867087230083,1.3369903622835875,-1.4954431406617164
1718311124171098000,35.56909814453125,3.689962770950794,2.1692530870854854,-0.6736418963804841
1718311124220871200,35.61887109375,4.424470639443397,2.5964362971156834,-0.6821229436736553
1718311124270643200,35.66864331054688,4.404727828097343,3.154696787342429,-1.1022665373906493
1718311124320416300,35.718416259765625,3.2588129953771827,0.11475625999271868,-0.9018225832402705
1718311124370188300,35.76818823242188,-0.8289151679396629,-0.06150105514526367,1.856592620553076
1718311124419961000,35.81796118164063,-4.150955603863299,3.0467250729233024,4.148711916589737
1718311124469733000,35.86773315429687,-5.247061865058541,3.0091847390800712,-2.015912683285028
1718311124519506200,35.91750610351563,-3.3338574227064846,2.827753820696473,-6.111752695256471
1718311124569279200,35.967279296875,2.289474042224884,4.976797647967934,-0.8897861084878445
1718311124619051300,36.01705126953125,-7.417195242109894,-8.161112743982672,1.067452705901861
1718311124668824300,36.06682421875,-3.4084541062682865,-4.938835289320349,3.7538100969612596
1718311124718596000,36.11659619140625,-0.19342355399429798,-0.3025000147849321,-1.4095762905448674
1718311124768369200,36.166369140625,-3.5010572789028287,-3.4903427004039287,1.7309040476575492
1718311124818142200,36.21614208984375,-0.9756400991231202,-1.0794874270886181,1.3856743136927485
1718311124867914200,36.265914306640624,-3.410068263466656,2.7550141631782052,-3.834823661828041
1718311124917687300,36.31568725585937,-2.861527787743509,1.0412269622772932,-2.062641262842715
1718311124967460000,36.36546020507812,-1.8891548737227915,0.6644622723639011,-1.4618946529336272
1718311125017232100,36.415232177734374,-1.6437047798931597,0.9110925158888101,-2.844621076606214
1718311125067005200,36.46500512695312,2.8523516708582637,1.9841876115918158,1.3618382416836916
1718311125116777200,36.514777099609375,-0.16955686765126882,-0.23532675922214982,0.5251430873923003
1718311125166550300,36.56455029296875,0.8164673359073698,1.4344143792033195,-0.8953589401841163
1718311125216323000,36.61432299804687,2.996764817968011,2.2384534645617005,-0.7634016622826456
1718311125266095000,36.66409521484375,0.7670107926905154,3.00195069617331,-1.5962293274909256
1718311125315868200,36.7138681640625,4.216600334684551,0.7597814259588718,1.8875366248711942
1718311125365641200,36.76364111328125,4.17539417181015,1.0737000758588313,-1.8492193153060972
1718311125415413200,36.81341333007813,2.486011928847432,1.9538503409951924,-1.275122373522073
1718311125465186000,36.86318603515625,2.749160760974884,0.907422302943468,0.034168519322574135
1718311125514959000,36.912958984375,1.2214099264264107,1.0238391896247863,2.1720663909405467
1718311125564731100,36.96273120117188,-1.9579180288255214,3.2671687357902526,2.4084352065615353
1718311125614504200,37.012504150390626,-9.633978726655243,1.6900228789538143,-2.9367019789323208
1718311125664277000,37.062277099609375,1.6492600759327412,4.128512009125948,-4.991960145786404
1718311125714049000,37.11204907226563,-6.24086948903501,-4.320991560268402,-2.435919864206016
1718311125763823000,37.16182299804687,-0.9973363826245069,-3.394417397609353,1.3354682672828435
1718311125813596000,37.21159594726562,4.7760476966083045,20.26093856333494,2.2885230251103637
1718311125863368000,37.261367919921874,-10.671183593809603,-17.14593724204302,-0.7524322322398423
1718311125913141000,37.31114111328125,0.04506254604160785,-2.9443489865541457,1.038000693707168
1718311125962914000,37.3609140625,1.7538555919170378,5.206365113011002,-0.23146336179226634
1718311126012686000,37.41068603515625,-4.6678000878572465,-7.05651191842556,0.33729543383419514
1718311126062459000,37.460458984375,-1.0259703564345837,-0.6611907033473253,1.7022048996567725
1718311126112232000,37.51023193359375,-4.182495235987007,3.5011183614403008,-4.717675002616644
1718311126162005000,37.5600048828125,-1.0190238982975481,-0.7003589306533337,-1.770309444720298
1718311126211777000,37.609777099609374,-0.6311915786638855,0.2757452788501978,0.19550686307437717
1718311126261549800,37.6595498046875,-0.22164478228501974,2.0806424912184474,1.2392568410232663
1718311126311323000,37.70932299804687,0.5981885959893465,0.6909644948422908,-2.3355822979271412
1718311126361095000,37.759094970703124,-2.9392689068108795,1.0012316364973783,-2.2989418355330824
1718311126410868000,37.80886791992187,5.762696096479893,1.4468243634432554,1.8364895975925026
1718311126460641000,37.85864111328125,0.2360549273662269,2.335837733992934,-0.9886262758158146
1718311126510413800,37.90841381835938,0.5540516403600573,1.2948434114277363,0.17298218419114128
1718311126560185900,37.95818579101562,4.8654810070350765,2.3021827171504494,-2.111444895108789
1718311126609959000,38.007958984375,1.8025091481879352,0.811693399503827,-0.00031699352730065584
1718311126659732200,38.05773217773437,2.8640941311001775,1.71718561116755,0.45703138193562626
1718311126709505000,38.10750512695312,2.813861488944292,-1.3008815225481987,-0.42428558889254925
1718311126759277000,38.157277099609374,0.14082535175085067,1.044248355925083,0.7402977770056575
1718311126809050000,38.20705004882812,-0.44757206419482826,2.8295880503863096,1.0110196016706525
1718311126858823200,38.2568232421875,-2.97456321529299,2.242452178809047,1.9931731743410228
1718311126908596000,38.30659594726563,-4.918784434938431,0.8748375456809997,-3.3113860631793735
1718311126958368000,38.35636791992187,-1.9966963800311088,1.927273299714923,-2.657289994268119
1718311127008141000,38.40614111328125,-3.339609118101001,-0.3892576762616634,0.8100681363895536
1718311127057914000,38.4559140625,4.232091626065969,6.08555208607316,4.949624978882074
1718311127107687000,38.50568701171875,-6.963313410246371,-7.3467977638036,-2.003007462874055
1718311127157459000,38.555458984375,-0.8121785526722669,-5.792240755394101,-1.2740461225926876
1718311127207232000,38.60523193359375,-2.9685476082652804,-5.048964474034309,-0.6892568141415715
1718311127257005000,38.65500512695313,0.0829056622236967,1.3094231409221886,3.1095018470928073
1718311127306777900,38.70477783203125,-5.688098828396201,-0.8725643400520086,-2.0325717032715676
1718311127356550000,38.7545498046875,-5.264847112596034,2.1599743866086003,-2.330593988120556
1718311127406323000,38.80432299804688,-4.519330943354964,0.8620371008187532,-2.0587049463070928
1718311127456096300,38.85409619140625,-0.025092355680465698,1.8655612321674824,-1.3874457072794437
1718311127505869000,38.903869140625,1.421734930372238,1.3182318857997655,-1.0344730310376733
1718311127555641000,38.95364111328125,1.419786134392023,1.2491969280183315,0.6052925097104161
1718311127605414100,39.0034140625,0.7888840401940047,1.0748714577257632,-0.337348077336885
1718311127655187200,39.05318725585938,0.4883770989224314,2.474594462776184,-2.376242078965157
1718311127704960000,39.1029599609375,2.1530162380337714,6.302430165413021,-2.2401741508744655
1718311127754733000,39.152733154296875,5.911862575596571,2.175406349018216,1.6887904145494101
1718311127804505000,39.20250512695313,5.762384546312689,1.485113469827175,0.22870492992959915
1718311127854278100,39.252278076171876,2.2559873676866293,1.2320850496977567,-0.6092881552178412
1718311127904051000,39.302051025390625,1.0433633897840977,-1.4150018227249384,0.6672881434395909
1718311127953824000,39.351823974609374,0.5096384981378913,0.7006862629115581,-0.6370856051385402
1718311128003597000,39.40159716796875,-4.5498064533784985,1.6529671137571333,-1.572049556610733
1718311128053370000,39.4513701171875,-3.1571488566696644,1.2974509635776281,-2.1394154365740716
1718311128103142100,39.50114208984375,-3.9831536901205777,1.7668541896998882,-0.432707526409626
1718311128152915000,39.5509150390625,-3.2850708877056833,-1.9256267015516757,1.0745911794796585
1718311128202688300,39.600688232421874,16.374333276343346,10.127062688094377,7.52740509084463
1718311128252461300,39.65046142578125,-12.238553322041033,-8.077670490664243,-4.243156040915847
1718311128302234000,39.70023413085938,2.6054683293551206,-7.667818939185142,5.414793343913555
1718311128352006100,39.750006103515624,-1.9464508783936498,2.0938936024576424,-1.3641928419858216
1718311128401779200,39.799779296875,-3.651593585067987,-3.9797763226419685,2.713941271294653
1718311128451552300,39.84955224609375,-5.254513934630155,2.1362737775474785,-1.5810583541050551
1718311128501325000,39.89932495117188,-4.362803287820518,1.9025714046567677,-2.346932397850603
1718311128551098000,39.94909814453125,-2.935933040386438,0.63238604914546,-4.425457604654133
1718311128600871200,39.99887109375,0.3084918756108731,1.477901638752222,0.12575937310941518
1718311128650643200,40.04864331054687,2.7322026119112968,2.6110826621055603,0.7532743090871721
1718311128700416000,40.098416015625,1.4152658804886042,0.7845096245020627,0.06650669967914
1718311128750189300,40.14818920898438,1.7001980898790061,2.5852929718106985,-2.4810072524279354
1718311128799962400,40.19796240234375,2.934910127079487,3.8890135171771045,-1.624468018373102
1718311128849735200,40.247735107421875,3.0642952164053914,2.7491455634057522,0.8384546382445841
1718311128899508200,40.29750830078125,5.2132069417297835,1.0965753400117157,-2.020456318064034
1718311128949281300,40.34728125,3.055231912244856,3.246228239092231,0.2052640312505886
1718311128999053300,40.39705322265625,3.7355069630295037,0.6323614992260933,-0.09539934269171207
1718311129048826000,40.446826171875,1.867885291200876,1.4625035786122083,0.6242869138419628
1718311129098599400,40.496599365234374,-0.22870894851759074,2.624069569450617,1.7045060162059962
1718311129148372500,40.54637255859375,-4.331869512635469,2.5243331839352843,1.4941751665525138
1718311129198145300,40.59614526367187,-6.450790588843822,2.75088393150568,-3.628844577643275
1718311129247918300,40.64591845703125,-5.708021087962389,-0.23021686886250972,-2.789478450576961
1718311129297691400,40.69569140625,1.3720534923583267,-0.01329728846848011,1.0066077765777706
1718311129347464400,40.74546435546875,-2.3603408916085957,0.9452274252027273,-2.0081772667273876
1718311129397236200,40.795236328125,-4.0665754851728675,-10.74912841875553,4.068274398045242
1718311129447009300,40.84500927734375,-0.6313882702797651,0.023732173243165015,0.2550546652600169
1718311129496782300,40.8947822265625,-5.016363934680819,-1.4198188676178454,-1.5785323427587747
1718311129546555400,40.944555419921876,-4.509828370994329,0.5049713831096887,0.07326222008764743
1718311129596328200,40.994328125,-5.1554748837292195,2.942516510429978,-3.4840313253000375
1718311129646101200,41.044101318359374,-3.40742125608921,1.2129933957368135,-2.169405208907276
1718311129695874300,41.09387426757812,0.03732859078869223,-0.11142682330906391,-1.129149283619225
1718311129745646600,41.143646484375,2.2049439936697484,2.5504192268282173,0.7200625790327787
1718311129795419400,41.19341943359375,2.039052005201578,0.755426153358817,-0.5053708307560533
1718311129845191400,41.24319140625,0.9856061973422765,1.5175240395665168,-1.3153686053231357
1718311129894964500,41.29296459960938,1.504328457906842,1.6742746902018784,-2.6356203065127133
1718311129944737500,41.342737548828126,4.145471911755204,4.74748444994688,2.0413301792666316
1718311129994510300,41.39251025390625,4.014383525642752,1.613586120483279,-2.981540360829234
1718311130044283400,41.44228344726562,1.7140099037408827,3.555550208851695,-0.810457866359502
1718311130094056400,41.49205639648437,2.047668003986031,2.2949212017148732,0.6515262184232473
1718311130143829200,41.54182934570313,2.0256338668324054,1.345402216798067,0.8777535792581737
1718311130193602600,41.5916025390625,3.0213772811770436,-0.9168395351082086,0.30807606135159726
1718311130243375600,41.64137573242188,1.8617326137900352,0.2794523166745901,0.5006862531363964
1718311130293148400,41.6911484375,-4.179065261538327,0.13752397211790085,1.2401549589067697
1718311130342921500,41.74092138671875,-4.205342150828242,3.2268770574122665,-4.1172023873433465
1718311130392693500,41.79069360351563,-3.1735826895982027,4.904501642563939,-2.1818360898047686
1718311130442466600,41.84046655273438,-1.311710959598422,2.0268097787439823,-0.6734481273740529
1718311130492239400,41.8902392578125,-4.511748525401949,-3.089749391135573,1.5971040644988417
1718311130542012400,41.940012451171874,-4.6754432960867875,-4.10754520894289,3.9698476338237523
1718311130591785500,41.98978540039062,-2.899682161831856,-1.5616893445074558,-2.87566211155802
1718311130641558500,42.03955859375,-3.4856203480571506,-0.6990156993508339,-1.1264867864117025
1718311130691331300,42.08933129882813,-3.3409277994841333,0.8511983114182948,-0.5747343629047275
1718311130741104400,42.1391044921875,-3.133963211393356,0.06417933444380759,-1.7345187310233712
1718311130790877400,42.18887744140625,-2.0936355360433456,0.8295365147083997,-2.390035626517981
1718311130840650500,42.238650390625,-1.2114872289575636,0.9699830962747334,-4.129521770690381
1718311130890423600,42.288423583984375,0.9199779061991721,-0.36741409324407576,0.46323082109764213
1718311130940196600,42.338196533203124,4.957220256316662,1.6940426359891891,2.3155394807212053
1718311130989969400,42.38796948242187,1.0765385141551493,3.355830185061693,-2.013311122484505
1718311131039742500,42.43774243164062,1.7175063675545155,1.1047072085410357,-1.2264100728012621
1718311131089515500,42.487515625,0.7310581664301454,3.4282448484092947,-0.6501371021524072
1718311131139288300,42.53728833007813,2.173901789674163,-0.6235860720962285,1.165799244493991
1718311131189061400,42.587061279296876,4.191005290178954,4.95923685683608,-1.8236425371095537
1718311131238833400,42.63683349609375,5.694314049649238,4.403827079865336,0.19836101039648055
1718311131288606500,42.6866064453125,4.5527042206466195,2.084972629377246,0.09791317040985449
1718311131338379300,42.736379150390626,0.7557002941250801,-0.022778818041086196,1.4993199820950627
1718311131388152300,42.78615234375,-4.534880979186296,0.7162877366691828,3.3267662954017516
1718311131437925400,42.83592529296875,-5.248282931286096,0.18186404910385606,-0.6953751508913933
1718311131487698400,42.885698486328124,1.361144560331106,5.850872392582893,-4.893576343923807
1718311131537471500,42.93547143554687,-3.9087159965127705,2.06687407810688,-1.4952116699934004
1718311131587244500,42.98524462890625,-4.8843905824273826,-1.9059511102229356,-0.4421171597898006
1718311131637017600,43.035017578125,-1.7971505437642334,-2.42583130865097,0.508982664577663
1718311131686790400,43.08479028320313,-3.1156290978014467,-3.155636698541045,1.6468091756492853
1718311131736563200,43.134563232421876,-1.6219056205391882,-3.9082179838627575,-0.1518456351980567
1718311131786336500,43.18433642578125,-3.934387028864026,-1.459917653772235,0.45558746673762796
1718311131836109300,43.234109375,-5.1513604341477155,1.2053414196789265,-0.9015928661376237
1718311131885882400,43.28388232421875,-5.466453388524055,2.7906489556610583,-2.173541139668226
1718311131935655400,43.33365551757812,-3.0134736684456467,0.22179741556346416,-2.6834923570170996
1718311131985428200,43.38342822265625,0.336947789440304,1.3046136948138474,-1.5854631649352608
1718311132035201300,43.433201171875,2.521895143133402,1.8305138841837643,1.1286372424438595
1718311132084974300,43.48297436523438,2.718260595798492,0.7273848847448825,-0.03228490666621364
1718311132134747400,43.532747314453125,0.5156886650223285,2.44418354242146,-2.2980551158264277
1718311132184520200,43.582520263671874,2.600893276524544,3.1171734046339985,-1.9453515388496219
1718311132234293200,43.63229321289062,2.2882615976952017,2.3806027583926914,0.32327545711435374
1718311132284066300,43.68206640625,2.3707756302528082,1.8463287084311246,-4.431751736362278
1718311132333839400,43.73183935546875,4.392528856259585,3.4349183348238466,-0.8365677285194396
1718311132383612400,43.7816123046875,4.182161181727052,3.1183430329352615,0.36606673375573007
1718311132433385500,43.83138549804688,2.948060116031766,1.7308172461569309,0.38673787546046073
1718311132483158300,43.881158203125,-0.7476340381778777,2.153626478886604,3.733052263353765
1718311132532931300,43.930931396484375,-4.346143244920671,0.49505847638249395,2.5878181063741446
1718311132582704400,43.980704345703124,-5.233156089302897,1.6139952858060598,-5.518558254292607
1718311132632477200,44.03047729492187,-0.7593529714137315,2.038606599521637,-1.934401251898706
1718311132682249200,44.080249267578125,-1.9190829789966344,4.6130976068109275,-2.467700903870165
1718311132732022500,44.1300224609375,-7.373955819842219,-8.644797593435644,3.642678749467432
1718311132781795600,44.179795654296875,-1.2001198856383561,-0.5623375304073095,-1.6427689603477715
1718311132831568400,44.229568359375,-1.5384505077391861,-4.87244061691463,-0.3394529041290283
1718311132881341400,44.27934155273437,-3.6976942419856784,-1.5084382313132285,1.290129242387414
1718311132931114500,44.32911450195313,-5.239283047750592,1.164386893478036,-0.15747575003951786
1718311132980887300,44.37888720703125,-5.577926389062404,4.266954849654436,-2.782220150011778
1718311133030660400,44.428660400390626,-4.752143381668627,0.9016723611146211,-3.489075456947088
1718311133080433400,44.478433349609375,0.42946532961800693,0.4902081137418747,-3.653712476918101
1718311133130206500,44.52820654296875,2.8819010059475896,1.9766069472044705,2.625713829526305
1718311133179979500,44.5779794921875,0.8077782718867063,-0.3236772428482771,0.8339527237154543
1718311133229752600,44.627752685546874,1.563399071034789,3.882510126632452,-2.2226005002610383
1718311133279525600,44.67752563476562,2.603943311744928,3.853986627459526,-1.3619013700477778
1718311133329298400,44.72729833984375,3.024886750602722,2.0618957051724194,-0.18814064515531062
1718311133379071500,44.77707153320313,3.40367388625443,1.9747604425549505,-2.6742799997746944
1718311133428844500,44.826844482421876,4.323129741340876,2.6651702261239287,-1.7942242810539901
1718311133478617300,44.876617431640625,4.581215444859862,2.979232668408751,-0.9738644677527248
1718311133528390400,44.926390380859374,1.487685366141796,0.8970049538254737,2.173550053627044
1718311133578163500,44.97616357421875,-1.4912965423762798,0.3385428035467863,2.2080782000422476
1718311133627936500,45.0259365234375,-2.20311327111125,1.0827730246305465,2.3490356537401675
1718311133677709600,45.07570947265625,-2.4859879634499547,1.173398467451334,-3.60327554436177
1718311133727482600,45.12548266601563,-1.3880021721184252,4.771102056899666,-3.2709394865006205
1718311133777255400,45.17525537109375,-4.495292480641603,-0.8864099100530147,-0.9606792613565921
1718311133827028500,45.225028564453126,-3.4570091706007715,-2.008249455180764,1.4088891850635408
1718311133876801800,45.2748017578125,-1.5717022044777869,-2.820857046920061,1.7196332965806125
1718311133926574600,45.32457470703125,-2.1234914528638122,-2.9420939011037346,0.10074205542653798
1718311133976347600,45.37434765625,-2.525177233543992,-1.978549313443899,0.38729163688570256
1718311134026120700,45.42412060546875,-3.7786435094445943,-0.6942477542966604,0.08912088347673415
1718311134075893800,45.47389379882812,-3.9843373469471928,1.8397405622124672,-1.6051726585336028
1718311134125666600,45.52366650390625,-3.638444472898543,2.477259298071265,-2.220440838009119
1718311134175439600,45.57343969726563,-2.0018205911770464,0.32199908050298687,-3.3140216723799703
1718311134225212700,45.623212646484376,-0.19329700500518082,-0.388560926169157,1.0188362667709587
1718311134274985500,45.6729853515625,2.1439199083864686,0.7524065132766962,2.2377505769893524
1718311134324758500,45.722758544921874,1.8718395817846059,1.0351204620957375,-0.10029137078328057
1718311134374531600,45.77253149414062,0.324027955982089,1.7092951501786708,-2.0044743205562234
1718311134424304600,45.8223046875,-0.40563612574115393,1.5368565165460109,-2.7613138478443027
1718311134474077700,45.87207763671875,0.49406551982238883,2.623844528523087,0.8167232103645801
1718311134523850800,45.92185083007813,2.847673157653212,2.637815770730376,-1.3593353189520536
1718311134573623600,45.97162353515625,2.996329933682084,2.9706700072467327,-1.9160132161624728
1718311134623396600,46.021396728515626,2.381008416584134,2.647995219439268,-1.4389045302294194
1718311134673169700,46.071169677734375,2.7688340142160652,2.6456331664830444,0.006999247770197689
1718311134722942500,46.1209423828125,2.1459113744646308,1.1685071882784366,0.5642901257798075
1718311134772715300,46.17071533203125,0.12830840000510216,1.2686077309310435,2.8033973780751227
1718311134822488300,46.22048828125,-1.1562567785143851,0.5650736773729323,2.441046705700457
1718311134872261400,46.27026147460938,-4.233082975190878,-0.028602994149923323,-2.7549238545462487
1718311134922034200,46.3200341796875,-3.418373442736268,1.39660984146595,-1.7330504120364785
1718311134971807200,46.36980712890625,-0.2700204714626074,5.907272325196862,-1.5312155880495906
1718311135021580300,46.419580322265624,-4.934465403673053,-2.9183506219446658,-1.0699980064705013
1718311135071353300,46.46935327148437,-1.2805384072214365,-3.7865053288608785,1.4516811558246612
1718311135121126400,46.51912646484375,-2.0056781433880326,-1.7193348981559275,1.0274807609975338
1718311135170899500,46.5688994140625,-2.2083710455089807,-3.8160178390711543,-0.24566461336314677
1718311135220672300,46.61867236328125,-2.3133523459404706,0.14548048408031464,0.06223112298548221
1718311135270445300,46.6684453125,-3.8279216273546215,0.48167175606489177,0.24139789582937954
1718311135320218400,46.71821826171875,-4.363942813244462,2.505939449110627,-1.6847067984975874
1718311135369991400,46.767991455078125,-3.7664328471690416,-0.3226642664134502,-1.3959087074592709
1718311135419764200,46.81776416015625,0.6042775605142117,-1.137724512001872,-2.8186802874028682
1718311135469537300,46.86753735351562,0.6584346826374531,0.9730436528891324,0.5200539840923621
1718311135519310300,46.91731030273438,2.319297518080473,1.4757850849896668,2.064003783367574
1718311135569083100,46.96708325195313,0.9711702602326869,1.966827895990014,-1.173695842962712
1718311135618856400,47.0168564453125,0.9221299696665257,2.545093647891283,-2.6920252075627444
1718311135668629500,47.06662939453125,1.6508482219070195,2.0835364590942858,1.2647864190772176
1718311135718402300,47.11640234375,1.1206203785963356,1.2639531831234694,-0.4612758145723492
1718311135768175900,47.16617578125,2.3972126785404977,3.441311250731349,-2.1572756490439176
1718311135817949000,47.215948974609375,2.6955834845662117,2.6739099974185225,-1.9264416711963712
1718311135867721700,47.2657216796875,3.124983201602101,2.7784382933855056,-1.5205644301757215
1718311135917494800,47.31549487304687,3.237690712371468,1.8759727360665797,0.2653087866403162
1718311135967267800,47.36526782226562,3.180454328933358,0.7430150000751018,0.2760747300002724
1718311136017040600,47.41504052734375,0.34070012771114705,1.7826812889069317,2.6467352825060484
1718311136066813700,47.46481372070313,-2.300971295534074,0.5145394219219684,3.5126387033641335
1718311136116587000,47.5145869140625,-6.509716825065016,-0.10299041887521743,-4.377366358441114
1718311136166359800,47.56435986328125,-5.136111427089571,1.6065771185040474,-2.4133624338306485
1718311136216132900,47.6141328125,-0.21242869871556758,2.5381810920238492,-0.9630290393531322
1718311136265906000,47.663906005859374,0.5411041882425547,3.1931296861112117,1.4983724721118807
1718311136315678700,47.7136787109375,-7.829991614869236,-7.021129639399051,2.1557889176174996
1718311136365451800,47.76345166015625,0.7359054603308439,0.998613562953472,-0.7139984566882253
1718311136415224800,47.81322485351563,-2.2461299905389547,-3.7181647830843922,-0.16518237889409065
1718311136464998000,47.86299780273438,-3.2593221139431,-2.119674524924159,0.817613144941628
1718311136514770700,47.912770751953126,-4.393856305471062,1.573461030843854,-1.8486510138988494
1718311136564543700,47.962543701171874,-5.019312263092399,2.4518676671832798,-0.8887240322142839
1718311136614316800,48.01231689453125,-3.4474940310195086,1.63695296754539,-0.30441622366979715
1718311136664089900,48.06208984375,-3.1249197809770703,1.1531991445094347,-1.9635120494402944
1718311136713863000,48.11186279296875,-0.17325784106105566,-0.033766076001524925,-1.7306275688037276
1718311136763635700,48.1616357421875,1.7059996157646178,0.918004487234354,0.968463923883438
1718311136813408500,48.211408447265626,3.8676217695802446,1.01864746620059,0.9088864572118968
1718311136863180500,48.2611806640625,3.17765271551609,3.3057577019035813,-1.8004335109576581
1718311136912954600,48.31095458984375,1.111906034003943,2.380427986347675,-3.0647371149539944
1718311136962726700,48.3607265625,1.0042479155786335,2.6769728921204803,0.9816372206460684
1718311137012499500,48.41049951171875,2.692445186540484,3.8031133493125435,-1.1764335973635316
1718311137062272500,48.4602724609375,4.342748049524427,3.1115380290955303,-1.3941894824512302
1718311137112045600,48.510045654296874,3.2595839797496793,2.8936230079233645,-0.6839166221573948
1718311137161818600,48.55981860351562,2.8609885663002728,2.7423499119162558,-0.3197376018444076
1718311137211591400,48.60959130859375,1.430327402150631,1.1785428446024655,0.3639189446046948
1718311137261364500,48.65936450195313,-2.659325591748953,0.5934101295411587,2.4451254994466898
1718311137311137800,48.7091376953125,-3.5757118301317092,-2.4582424629122017,0.9717895611748099
1718311137360910600,48.75891064453125,-3.26923355936557,-0.03617313714325428,-3.5359161185771226
1718311137410683600,48.80868359375,-1.2624813570052384,6.82829177633822,-0.6735130093038082
1718311137460456700,48.858456787109375,-3.352874257865548,2.3364339463204145,-1.6907000475630163
1718311137510229500,48.9082294921875,-3.0479969925552606,-4.257057140496373,0.32283407002240416
1718311137560002600,48.95800244140625,-3.3657547822266816,-2.8379297622740265,1.7988050329729914
1718311137609775600,49.00777563476562,-2.5244863286703825,-2.8667718258768318,0.3148687902316451
1718311137659548400,49.05754833984375,-3.0507378156960008,-0.7471691971451043,0.23381547787636517
1718311137709321500,49.10732153320313,-4.534767581939697,0.6914215909600258,-0.23636194748878478
1718311137759094500,49.157094482421876,-5.033467045173048,3.0385709925621747,-3.956464128376543
1718311137808867300,49.206867431640624,-4.042420702603459,-0.05207797776162624,-3.2479689452797174
1718311137858640400,49.25664038085937,0.011817863565683364,0.11810557042062282,-1.4049099061690271
1718311137908413400,49.30641333007812,0.24252412338033316,-0.14730769950747488,2.2671596268251535
1718311137958186500,49.3561865234375,2.476816815000772,2.3137778778761624,-1.6593226202636957
1718311138007959300,49.40595922851563,0.9382979182004928,1.996405288130045,-0.523927208796516
1718311138057732400,49.455732421875,2.4466077008284626,3.1089176174640656,-2.1834913096658886
1718311138107505700,49.50550561523438,2.0536071847766637,0.9643225862950086,-1.0477831789877265
1718311138157278500,49.555278564453126,2.7999714952796695,4.661373269680142,1.1357500701237468
1718311138207051500,49.605051513671874,2.1215864960253237,3.6739468711733814,-2.0999447191901504
1718311138256824600,49.65482446289062,3.93971319232285,3.7171997374445196,-1.1270115409381687
1718311138306597400,49.70459741210937,4.075599041844904,3.341173298677802,0.1932003031650558
1718311138356370400,49.75437036132813,4.2015789989024395,1.611650183984637,-0.11101480844207107
1718311138406143500,49.8041435546875,1.3152711362980305,1.0018237571716309,1.2982102575123309
1718311138455916300,49.853916259765626,-3.765637897399068,-0.0821995597809553,3.1929870627701282
1718311138505689300,49.903689453125,-5.716074630558491,-0.5348270076692104,-2.287417548086494
1718311138555462400,49.95346240234375,-5.721288565814495,2.942165797296166,-3.9388469308823346
1718311138605235500,50.0032353515625,1.834835839036107,6.995203170982003,-1.2081406950086355
1718311138655008500,50.05300854492187,-5.665489521703123,-2.856487163227796,-1.1485019266039131
1718311138704781600,50.10278149414062,-3.2485856158733366,-4.357622962573171,2.459492170712352
1718311138754555000,50.15255493164062,-3.605646072885394,-2.5141788696676493,0.004710661908984184
1718311138804328000,50.20232788085937,-2.373712414357066,-3.494571131753921,1.1895470536977053
1718311138854101000,50.25210107421875,-4.766569089645147,-0.42389468987882134,-0.2059223855614662
1718311138903874000,50.3018740234375,-4.7580058439612385,3.3506635960787534,-1.644847520187497
1718311138953646800,50.351646728515625,-4.8804175871431825,2.226604036813974,-3.0133251998856663
1718311139003420000,50.401419921875,-3.6888869584128257,1.011125838524103,-3.4520749290689823
1718311139053192000,50.45119189453125,1.032805609282106,-0.9621639469563961,-1.7367900369562208
1718311139102965000,50.50096508789063,4.57540003657937,1.4789865113794802,3.5388252840220926
1718311139152737800,50.55073779296875,3.313621274885535,1.9148095394611357,0.0925235680596903
1718311139202510800,50.6005107421875,0.4973113698758185,3.173410255640745,-4.3166500239327545
1718311139252284200,50.6502841796875,3.355029974594712,4.096750843206048,-1.6670592058651148
1718311139302057000,50.70005688476562,1.773244913650304,1.9146125555843114,-0.10495573673197067
1718311139351830000,50.749830078125,3.3961242015272375,3.224388163205981,-1.3340861652746796
1718311139401603000,50.79960302734375,3.1614041760265827,5.269413982120156,-0.017992825873568652
1718311139451375900,50.8493759765625,3.2839433449804782,3.14178937497437,-0.9246451673578471
1718311139501149000,50.89914892578125,2.965088992244005,1.792132423341274,1.1899956742480398
1718311139550922000,50.948921875,-3.554526126500964,2.266073877415061,5.249374233654141
1718311139600694800,50.99869482421875,-6.317007556819916,-1.2830407454311847,-1.5723983700484037
1718311139650467800,51.0484677734375,1.1753338194280862,7.695988802614807,-1.6106038898020982
1718311139700241000,51.09824096679687,-4.908553548303246,0.8261796054959296,-8.719963601318002
1718311139750014000,51.14801391601563,-6.047062488681077,-3.483254203447699,-2.5350439630419013
1718311139799787000,51.197787109375,-1.565750602596998,-2.659237621204555,3.1308091312766075
1718311139849560000,51.24756005859375,-3.2500480896413326,-2.9105472547173497,2.2048200750291347
1718311139899333000,51.2973330078125,-4.591656174853444,-3.9505215865850447,-0.5169043974876404
1718311139949106000,51.34710595703125,-5.383286445015669,0.9247983851581811,-2.0142928269982336
1718311139998879000,51.39687890625,-4.980794608649611,1.7357763298690319,-1.9393927765756844
1718311140048651000,51.44665112304688,-3.6300188821196553,2.2898241708368063,-2.5444430750280618
1718311140098424000,51.496424072265626,-1.0462319309577346,1.873058894446492,-5.813612629246712
1718311140148196900,51.54619677734375,4.765252746349573,-3.1876299196511506,-0.6328404418494552
1718311140197970000,51.59596997070312,5.838392265716195,5.014524444293976,7.2855509756803505
1718311140247743000,51.64574291992187,2.7915754228562113,2.679098213711381,-2.3841112049050626
1718311140297515800,51.69551586914063,-4.441239403414726,1.8217478094041346,-6.663521485376358
1718311140347289000,51.7452890625,1.3940456900663674,4.325713912615179,0.45635103498864915
1718311140397062100,51.79506225585938,2.5452380247980355,1.1504168203145264,-0.6716364017769694
1718311140446835000,51.8448349609375,2.503618312686682,2.8840993927747007,-0.616793050955236
1718311140496608000,51.89460791015625,3.682141283544898,5.314994414556026,-0.4908341732183471
1718311140546381000,51.944381103515624,4.129707940912247,3.517705339103937,-1.1998024902522564
1718311140596153900,51.99415380859375,0.37736265580654144,2.393054828208685,2.3491864603877066
1718311140645927000,52.04392700195312,-6.303555370050669,-0.8286281676918268,3.0424796904385087
1718311140695700000,52.09369995117188,-4.953730076113343,1.6073942801058292,-5.567812991327047
1718311140745473000,52.14347314453125,-7.060793541267514,1.8497732959270476,-4.405139916029572
1718311140795245000,52.1932451171875,-0.9190946205586195,1.2196890939831733,-1.8385925612211227
1718311140845017900,52.24301782226563,-2.777257559168339,-1.0579390276253222,-0.6198538998305797
1718311140894791000,52.292791015625,-6.362801339745521,-7.532197001296281,3.3819203196078536
1718311140944564000,52.34256396484375,-1.8867331995338201,-1.7538070766001939,3.7574084137141703
1718311140994336800,52.392336669921875,-4.345441526392102,-1.5834581087231636,-5.677016877889633
1718311141044109800,52.44210986328125,-5.593290546932816,3.630855332943797,-1.2866636121034623
1718311141093883000,52.4918828125,-4.18958694781363,2.72287130446434,-2.5789813044458625
1718311141143655700,52.54165576171875,0.2296279630586505,-0.24336568877100942,-4.2896921666413546
1718311141193428700,52.5914287109375,2.658750422209501,-2.639364169216156,-0.15963395098671315
1718311141243201800,52.64120190429688,4.762696047604083,2.6760703903228045,2.6273966680467127
1718311141292974600,52.690974609375,1.005488124898076,3.2154929090887308,-2.839454779884219
1718311141342748000,52.740747802734376,1.025432596296072,0.38779227988421916,-1.703606583148241
1718311141392519700,52.79051977539063,-1.0644042781166732,7.489430457237362,-2.9235338698014615
1718311141442293000,52.84029296875,3.2427135089695454,1.081280155724287,0.10722866836632601
1718311141492065800,52.890065673828126,3.1738942397654055,2.7763755156368015,-0.7595363651566207
1718311141541838800,52.9398388671875,2.398778466552496,5.651348183625936,-0.7175469429500401
1718311141591612000,52.98961181640625,2.5483470967292785,2.054898978152871,-0.5779323186958208
1718311141641385000,53.039385009765624,-0.32057971522435547,1.5039964494735,3.016809827131033
1718311141691157800,53.08915771484375,-4.266623425742983,-0.13352818048000334,1.693508236851543
1718311141740931000,53.13893115234375,-3.0245629254758355,1.67126907864511,-2.6492311909750104
1718311141790704000,53.1887041015625,-3.6643291480004785,5.182160061559081,-4.950611067309976
1718311141840477000,53.23847680664063,-8.108613910460472,-2.180244436699152,-3.249649737973511
1718311141890250000,53.28825,-1.7552935157656668,-4.748366493478417,1.2126204707711934
1718311141940023000,53.33802294921875,-2.5660060875385997,-3.0746228414133188,4.036666669121384
1718311141989795800,53.3877958984375,-5.795108419784903,-4.824849429178237,2.5963836901456117
1718311142039568000,53.43756787109375,-4.329102970531583,-1.4852034861981869,-2.404923837439716
1718311142089341000,53.4873408203125,-6.22798253493309,5.38429065362215,-2.3709216145947574
1718311142139114000,53.537114013671875,-3.4919013280227778,4.288852793207765,-5.005833188316226
1718311142188886800,53.58688671875,1.1961518587902187,-3.0882793185830115,-6.768506292939185
1718311142238660000,53.63666015625,1.6622760632418094,-2.0936364128261804,0.8792517088614403
1718311142288433200,53.68643310546875,6.223418588018417,4.586614673554897,6.868762902936339
1718311142338206000,53.7362060546875,-0.8944628681272268,2.2736925357252358,-3.3676720140248535
1718311142387979000,53.78597900390625,1.694798861183971,1.0669266362011431,-4.723597670663893
1718311142437752000,53.835751953125,0.06981237189471722,5.42209460683763,-1.6556025768272578
1718311142487524900,53.88552490234375,2.247801284752041,1.221694588586688,1.5706727152995765
1718311142537298000,53.9352978515625,3.3250422480881214,2.172929145249724,-2.0465943834051488
1718311142587071000,53.985071044921874,3.612738076972961,4.056277963042259,-1.6549788919709623
1718311142636844000,54.03484399414062,4.120921992388367,3.5049481488615273,-1.3192813948526978
1718311142686616000,54.084615966796875,1.808185586389154,3.240257347989082,2.402522913777828
1718311142736388900,54.134388916015624,-4.665860644227266,-0.2697042451202869,3.305362565106153
1718311142786162000,54.18416186523437,-3.253099878427386,1.5536819791406393,-4.694669682343304
1718311142835935000,54.23393505859375,-3.9951311281621456,2.487647421094775,-2.751728565636277
1718311142885707800,54.28370776367188,-3.4997400588244196,4.574095383721589,-3.8285412205576894
1718311142935480800,54.333480712890626,-5.9099219629228115,-6.988011798173189,-0.3027759091168642
1718311142985254000,54.38325390625,-2.0249381396532056,-3.3573326985791323,3.7665930061668154
1718311143035026700,54.433026611328124,-3.178087599802017,-2.638966694331169,1.587245226046443
1718311143084799700,54.4827998046875,-5.065250422924756,-3.3572394673377275,-0.4407745130091905
1718311143134572800,54.53257275390625,-4.98361258867979,0.6244494109272957,-2.2095254762411116
1718311143184345600,54.582345703125,-4.025853890945017,3.9308886653542516,-4.131280304795504
1718311143234119000,54.63211889648438,-1.3178864333629607,1.529010479220748,-6.502521360602975
1718311143283892000,54.68189208984375,1.3804923810102046,-2.585385326269269,-0.3349985550686717
1718311143333664800,54.731664794921876,3.9574621995031833,1.2724684980124235,8.078901493763922
1718311143383437800,54.781437744140625,-2.642633400145173,2.573528884258866,-4.333559949940443
1718311143433209900,54.8312099609375,5.036061153319478,-0.17256839749217032,-0.6940460942447185
1718311143482983000,54.88098291015625,-0.8006371679604053,6.916271673086285,-2.88229205109179
1718311143532756000,54.930755859375,2.525611241047084,2.555357852274179,0.6207684573922306
1718311143582528800,54.98052880859375,2.9437799544945356,2.023244779738784,-1.1887393905766308
1718311143632301800,55.0303017578125,3.5169361082971093,5.619119984716177,-0.9061682112291455
1718311143682075000,55.08007495117187,3.624417408850789,4.1215836711674925,-0.4558281070930883
1718311143731847700,55.12984765625,0.9834816064037382,1.9662474657535551,1.7364613895237444
1718311143781621200,55.17962133789062,-3.0631147744491694,4.141493655773997,4.384620275092125
1718311143831394300,55.22939428710937,-9.57451239220798,-0.37428105640411374,-2.3183397789642215
1718311143881167000,55.2791669921875,-5.85554038439393,2.1692560096949336,-7.857110507941246
1718311143930940200,55.32894018554688,-5.238609678533673,0.2871118915170431,-5.577644064989686
1718311143980713200,55.378713134765626,-0.3199363027542829,-5.429663580787182,2.245996719548106
1718311144030486000,55.428486083984374,-3.7714854543834924,-1.1776894426435232,2.8850924954652784
1718311144080259000,55.47825903320312,-9.165902365222573,-7.298340899148583,3.4286481685131784
1718311144130032000,55.5280322265625,-2.921200166156888,0.6275760185152292,-4.4350887718304985
1718311144179804200,55.57780419921875,-4.646856668549776,2.0965824031502005,-2.854380546337366
1718311144229577000,55.62757690429687,-3.719718442267179,2.621161573049426,-2.2318154878519474
1718311144279350000,55.67735009765625,-3.5017104821145533,-0.6325163975268602,-5.355377278348803
1718311144329123000,55.727123046875,1.0086791760243474,0.5029945300787687,-0.1994428508164361
1718311144378896000,55.77689575195313,3.431060490351915,3.5134681399255987,3.9455198327749965
1718311144428669200,55.82666918945313,-1.0639403138667345,0.5178869787842035,1.148550295790285
1718311144478442200,55.87644213867188,4.206611147850752,5.026523509645462,-3.5048958341524004
1718311144528215300,55.92621533203125,0.3206654938116669,5.5356496743470425,-1.1442373279619962
1718311144577988000,55.975988037109374,3.622107962864637,1.1510913585752247,-1.8473589282616971
1718311144627761200,56.02576123046875,3.7850124599546193,2.448675008621812,-0.4026290163470432
1718311144677534200,56.0755341796875,3.1363270179152485,5.41243421356678,-0.5461451415518298
1718311144727307000,56.12530712890625,3.9005022949188946,2.556570735195279,-1.4732067589342592
1718311144777079600,56.17507958984375,1.8721663295209408,2.176178502434492,1.7086349327042698
1718311144826852600,56.2248525390625,-6.180515265837311,0.8708417540431023,4.087752128714323
1718311144876625700,56.274625732421875,-4.942252404287458,0.554772063589096,-4.412727594679594
1718311144926398500,56.3243984375,-5.221319521036744,2.5524592082232234,-4.34056865965873
1718311144976171500,56.37417163085937,-0.06850538094937801,4.365433928585052,-3.421453580833971
1718311145025944600,56.42394458007813,-5.171497213247418,-5.967541792720556,0.19059388352632523
1718311145075716600,56.47371655273437,-5.228608509001136,-3.545821426519751,4.754409280773997
1718311145125489400,56.52348950195312,-3.553772093263268,-2.5831495300412177,1.9794430474132299
1718311145175262500,56.57326245117188,-4.966058811810613,-2.6968115650564433,-1.9150491934359073
1718311145225035800,56.62303588867187,-5.36069818111062,1.87785606559515,-1.2097703420370816
1718311145274808600,56.67280859375,-3.9537943246453997,3.3756419699907303,-4.44537314221859
1718311145324581600,56.72258154296875,-1.4825670002147555,0.8159422891199588,-5.826158807086944
1718311145374354700,56.772354736328126,2.925456070035696,-2.3805466442912815,-1.6243118048980831
1718311145424127500,56.82212744140625,0.28059567802343516,3.3971786790162324,3.291334624275565
1718311145473900500,56.87190063476562,2.905781647750735,3.4386201119512316,-2.263646650268137
1718311145523673600,56.92167358398437,7.90033297907412,2.8340672416269777,1.3768442337661981
1718311145573446400,56.9714462890625,-4.927499656313658,7.211014497873187,-3.700843353666365
1718311145623219500,57.02121948242188,3.385492917397618,4.806390812423825,-0.71906699212417
1718311145672992500,57.070992431640626,2.7010139851823447,2.068649855607748,-0.962843234457448
1718311145722765600,57.120765625,2.022608673792332,5.13158255148828,-0.5638402996530756
1718311145772538000,57.1705380859375,1.1102759485840796,3.42788069127202,-0.3168355237273499
1718311145822311200,57.22031127929687,0.7126302370749413,1.2460861025214194,1.3435332080557942
1718311145872084200,57.27008422851563,-1.331517483830452,2.4170517898678776,1.530532281960547
1718311145921857000,57.31985693359375,-7.001663306906819,-0.8025526461929082,-2.958765049919486
1718311145971629000,57.36962915039062,-7.670730442717671,2.0372621991753577,-4.6417409329712385
1718311146021402000,57.41940209960938,-3.7548826946288343,1.9735124883204698,-4.611743854114413
1718311146071175200,57.46917504882813,2.0501234343141315,-0.30398528490662574,3.9846155793666838
1718311146120948000,57.518947998046876,-6.142987206953763,-9.214143541300297,2.4928268695592877
1718311146170721300,57.56872119140625,-6.700746177399158,-4.9651183160901065,5.9099932745933526
1718311146220494300,57.618494384765626,-3.5619705972880125,-1.2568231851130722,-3.0914027113005518
1718311146270267100,57.66826708984375,-6.567455897328257,2.22478383564949,-1.9047019869446753
1718311146320040200,57.71804028320312,-3.300473624020815,2.1613281393051147,-3.4998657310307024
1718311146369813200,57.76781323242187,-1.7506874832749366,0.2078004543930292,-6.7207678056865925
1718311146419586300,57.81758642578125,1.6611948438763617,-1.3235709087401628,0.8349972643323242
1718311146469359000,57.86735913085938,5.235019545087218,3.781478440609574,4.174679593800008
1718311146519132200,57.917132080078126,-0.38361061028540133,4.297908790844678,-0.8603397953815758
1718311146568905200,57.9669052734375,5.653556507325172,3.4388445683568714,-1.7792177044495938
1718311146618678000,58.016677978515624,-1.1915728604368865,4.474700943511724,-0.5900193180590868
1718311146668451300,58.066451416015624,3.6722143482923504,3.6007729138910767,-3.2122122799828645
1718311146718223000,58.11622314453125,3.5676205858737227,1.701491782951355,-0.713893023552373
1718311146767997000,58.16599682617188,2.3361036914527413,5.03799708981812,-1.592827848484367
1718311146817770000,58.21577001953125,1.2464859154939651,3.191731509751081,0.9069341541003435
1718311146867543000,58.26554296875,1.1317945374310017,4.082850328147411,3.7081460778951643
1718311146917315800,58.31531591796875,-5.119426249748468,2.4586931292891503,0.1762663752272725
1718311146967089000,58.3650888671875,-8.50602800517082,-1.2003817514449358,-6.404812097001075
1718311147016862000,58.414862060546874,-7.799950696870684,0.6340197878271341,-5.87473199159801
1718311147066635000,58.46463500976562,-1.2637848408192396,-1.6335171478778123,-0.37681992723196744
1718311147116407800,58.51440771484375,-4.096632769784331,7.849369100034236,4.755378418067098
1718311147166180900,58.56418090820313,-10.836982058775424,-12.341383581918477,4.5169230054304
1718311147215954000,58.613953857421876,-2.5409558174341917,0.5937444760620594,-3.4272906164243815
1718311147265727000,58.66372705078125,-5.133180634334683,1.4572539875209332,-2.001460817953944
1718311147315498800,58.71349877929688,-4.575227018100023,3.4446892027318476,-1.3891067723594606
1718311147365272000,58.76327197265625,-4.08216293040514,0.9193710994124412,-4.380276692929864
1718311147415045000,58.81304516601563,1.8457647909380495,1.1781395244985817,-3.6400063153877853
1718311147464818000,58.86281787109375,2.741677711743116,2.327163429149985,2.104690890803933
1718311147514591000,58.912591064453125,4.106650305929779,1.1498854899168014,2.918226703304052
1718311147564364000,58.96236401367187,-2.703373407790065,2.333165299913287,-0.5638479349702596
1718311147614136800,59.01213671875,5.587727652108669,6.360269190919399,-5.622945680484175
1718311147663910000,59.06190991210938,2.2019033107995987,3.3150469237744806,-0.27356713109351694
1718311147713683000,59.11168286132813,4.92003472726047,3.0315397787511347,-1.2366028193831442
1718311147763456000,59.1614560546875,4.228222091156244,5.42972144845426,-0.6048453504648059
1718311147813229000,59.21122900390625,2.942453966587782,1.315123982912302,-0.7569562124703079
1718311147863002000,59.261002197265626,-1.8708298202201723,0.10344634594917297,3.2257711419969795
1718311147912774100,59.31077416992188,-4.753222409076988,-0.13231822016835212,2.001116972952336
1718311147962547000,59.360546875,-5.057768542736769,4.145997981455922,-3.2007097659766672
1718311148012320000,59.410320068359376,-2.2599393201828,5.27207238767445,-5.711826325464249
1718311148062093000,59.460093017578124,-5.867744032406806,-2.98766498118937,-2.2644296173393723
1718311148111866000,59.5098662109375,-2.4670944624096154,-5.520611679691076,2.0010306098431347
1718311148161639000,59.55963891601562,-2.669265386483073,-2.869468809875846,3.988130309489369
1718311148211412000,59.60941186523438,-4.074212848183512,-3.015384762763977,-1.1263465011581777
1718311148261185300,59.65918530273437,-5.378287029293179,-0.3523153083115816,-1.1622726778030394
1718311148310958000,59.7089580078125,-6.199010122948884,3.609056758111715,-3.0648563574194907
1718311148360731100,59.75873120117188,-2.8023806022480127,0.79520111438632,-3.408731169643998
1718311148410503200,59.80850317382812,0.9675897713974118,0.7676748095571995,-2.010377991642058
1718311148460276200,59.85827612304688,2.5450702670156953,2.806822676348686,0.0979304320719093
1718311148510049000,59.90804907226563,1.3468904095292091,-1.009109822526574,1.3695317187957465
1718311148559822000,59.957822021484375,0.710981446954608,3.733355922475457,-2.1298175871454177
1718311148609595100,60.00759521484375,4.349207600927353,4.711726323345303,-1.6268794634290038
1718311148659368000,60.05736791992187,1.2591548429310322,1.6008078874528406,-1.4884008209347723
1718311148709141000,60.10714111328125,4.830551440212131,4.343416158044338,-2.1673332249388095
1718311148758913800,60.15691381835938,4.990945415785909,4.293814799529314,-1.163400220528245
1718311148808686800,60.20668676757813,4.731196162968874,3.1994583046108485,-1.1422485652975738
1718311148858459600,60.256459716796876,3.5137107165098187,0.5649246242910623,0.68248498191908
1718311148908231700,60.30623168945313,-6.296358736544847,0.6438192973077297,4.843001171940565
1718311148958004700,60.35600463867188,-3.2509283796072004,1.301440325474739,-1.4513583536110817
1718311149007778000,60.40577807617188,-4.90412696403265,3.943632996115088,-5.5926633549451825
1718311149057550800,60.45555078125,-5.097569222727418,2.1934400183588263,-0.9502072594419121
1718311149107324000,60.505323974609375,-2.094545344364643,-0.9284107304364442,-0.73076517483294
1718311149157097000,60.555096923828124,-5.857577443179488,-4.578752854138613,1.0717863511919974
1718311149206869800,60.60486987304687,-2.888295675420761,-3.3108716839164494,2.216537400829792
1718311149256642800,60.65464282226562,-5.248583375537395,-2.413043723270297,-0.3051750792130828
1718311149306414800,60.704414794921874,-6.285767199903726,3.1614538603872058,-1.8035604108065366
1718311149356188000,60.75418798828125,-4.208969109153747,2.775992069277167,-5.568395175129175
1718311149405960700,60.80396069335937,-4.198274696660041,-0.3689806119084358,-3.8886318243831393
1718311149455733800,60.85373364257813,-0.08597761701494455,2.4253011472970245,-2.783305607160926
1718311149505506800,60.9035068359375,1.568801806861162,1.3446803322643042,3.2196742864266037
1718311149555279600,60.953279541015625,4.483575739362836,-0.053928574064373964,1.3691630316138266
1718311149605052700,61.003052734375,2.970033462908864,4.202634060913324,-1.2652417616292833
1718311149654826000,61.052825927734375,9.051486881491542,5.1322056518226855,-4.401544814147055
1718311149704597800,61.10259765625,-0.45162543123885984,3.0711908211380243,0.522296904180944
1718311149754371000,61.15237109375,3.145233377948403,4.228605537515879,-0.869737153802067
1718311149804144000,61.20214404296875,4.443820067557692,4.328428432270885,0.05376790360994637
1718311149853917200,61.251917236328126,5.489058019042015,4.084060872980952,-0.7705719192381948
1718311149903690000,61.30168994140625,1.956525697684288,2.276272615346312,0.518669690127112
1718311149953463000,61.35146313476562,-6.764139914423227,1.3575509197533129,4.877278120073676
1718311150003236000,61.40123608398437,-5.20256396716237,-1.1431266633063555,-1.0622007767230273
1718311150053009200,61.45100903320313,-2.95829100266695,5.568429661920667,-7.3226190158367155
1718311150102781200,61.50078125,-4.28076593286395,2.1965806544721125,-2.354176523759961
1718311150152554000,61.55055395507812,-1.4980167905420063,-0.46525253618359563,-1.5543416120931506
1718311150202327000,61.6003271484375,-6.3629901403158895,-5.538199358829855,1.8738328014284371
1718311150252100000,61.65010009765625,-2.314129175531864,-4.041269194480776,-0.6759586488902568
1718311150301873000,61.699872802734376,-4.909763508614898,-1.8649428080081938,-1.123947623322904
1718311150351646200,61.74964624023438,-5.533968004870414,1.9794494771540163,-1.8280057007551191
1718311150401419300,61.799419189453126,-4.933520231777429,2.657939105826616,-3.7222625737920403
1718311150451192000,61.849192138671874,-2.8654014143064614,0.6697633013814688,-4.474695975075662
1718311150500964000,61.89896411132813,0.27173253607749936,2.029116886642575,-4.792833411714434
1718311150550737200,61.948737060546875,3.3624165777146815,2.356089663904905,3.319182416144013
1718311150600510200,61.99851025390625,3.8457436997711656,-0.11331658257842063,5.590346310174465
1718311150650283000,62.04828295898437,-2.082253287415951,5.219586413633823,-6.980043595772981
1718311150700056000,62.09805615234375,4.892642862465977,5.979758884736896,-3.461279395265877
1718311150749829000,62.1478291015625,3.79181804831624,1.7607231395989655,0.34373138516582546
1718311150799602000,62.19760180664063,2.3034528832167385,4.066526385334134,1.252163084347546
1718311150849374000,62.2473740234375,4.560651380258799,5.495503541919589,0.1883109054219909
1718311150899147000,62.29714697265625,4.750184941077232,1.6675573646456001,-1.967524499952048
1718311150948920000,62.34692016601562,-1.2076374216616153,-0.3252992910921573,1.2291655089892446
