time,seconds_elapsed,z,y,x
1718311088633335000,0.0313349609375,0.4541473388671875,0.5309721231460571,-0.7119791507720947
1718311088683108000,0.081108154296875,1.7435998916625977,0.9197754859924316,-1.1405284404754639
1718311088732880600,0.130880615234375,2.3338663578033447,2.5361056327819824,0.5743122100830078
1718311088782653700,0.18065380859375,0.6191555261611938,0.6673284769058228,2.1515612602233887
1718311088832426800,0.2304267578125,-1.0801646709442139,-1.4804487228393555,3.9538350105285645
1718311088882199800,0.28019970703125,-0.29867470264434814,1.7898632287979126,0.6445936560630798
1718311088931972900,0.329972900390625,0.8865046501159668,-0.8362109661102295,0.5350565910339355
1718311088981746700,0.37974658203125,0.8151076436042786,-0.9811663031578064,-0.14856864511966705
1718311089031519700,0.429519775390625,-0.08935654163360596,-1.4232027530670166,-0.1101120188832283
1718311089081292500,0.47929248046875,-0.03736358880996704,-1.2003710269927979,0.721849262714386
1718311089131065600,0.529065673828125,-0.17863748967647552,-0.5381346344947815,0.20247620344161987
1718311089180838700,0.578838623046875,-0.007707045879215002,-0.13053378462791443,0.14464664459228516
1718311089230611700,0.62861181640625,-0.3186177611351013,-0.4630323648452759,0.007793368771672249
1718311089280384800,0.678384765625,-0.16874215006828308,-0.16761064529418945,0.3620743155479431
1718311089330157800,0.72815771484375,0.01764835976064205,-0.1433442234992981,0.08710481226444244
1718311089379930600,0.7779306640625,0.25761541724205017,0.12337855249643326,-0.33367064595222473
1718311089429703700,0.82770361328125,0.01222599484026432,0.3789350092411041,-0.6657587885856628
1718311089479476700,0.877476806640625,-0.05095990002155304,0.030841762199997902,-0.7649461030960083
1718311089529250600,0.92725048828125,0.008530229330062866,0.2834462523460388,-0.6709511876106262
1718311089579023600,0.977023681640625,0.17218410968780518,0.4028322398662567,0.15624095499515533
1718311089628796700,1.026796630859375,0.08031783998012543,0.15148380398750305,-0.14053843915462494
1718311089678569700,1.07656982421875,-0.08188159018754959,0.14854596555233002,-0.23099680244922638
1718311089728342500,1.126342529296875,-0.08731713145971298,0.11181896179914474,-0.15689697861671448
1718311089778115600,1.176115478515625,-0.033215250819921494,0.18573595583438873,0.005366738885641098
1718311089827888400,1.225888427734375,-0.04522417485713959,0.22912488877773285,-0.014358454383909702
1718311089877661400,1.275661376953125,0.24203668534755707,-0.1641780138015747,-0.3434356451034546
1718311089927434500,1.3254345703125,-0.09448810666799545,0.20299799740314484,0.05888034403324127
1718311089977208300,1.375208251953125,0.3409660756587982,-0.10627274215221405,-0.292887419462204
1718311090026981600,1.424981689453125,0.06485482305288315,-0.04418517276644707,0.28774750232696533
1718311090076754700,1.474754638671875,0.18665865063667297,-0.230048269033432,-0.008934158831834793
1718311090126527500,1.524527587890625,-0.06998884677886963,-0.05825658515095711,0.498110830783844
1718311090176300500,1.574300537109375,0.14594747126102448,-0.6388134956359863,0.21669095754623413
1718311090226073600,1.624073486328125,0.17220743000507355,-0.24874573945999146,0.1927085816860199
1718311090275846400,1.673846435546875,0.19634051620960236,-0.31925278902053833,1.1171029806137085
1718311090325619500,1.723619384765625,0.518599271774292,0.15857236087322235,-0.07949849218130112
1718311090375392500,1.773392578125,0.14989185333251953,0.3026598393917084,-0.37623387575149536
1718311090425165300,1.823165283203125,-0.03976016864180565,-0.07613275945186615,0.12588892877101898
1718311090474939600,1.872939697265625,0.38592925667762756,-0.19956336915493011,-0.23406757414340973
1718311090524712400,1.92271240234375,0.4167102873325348,-0.1716400533914566,0.06062358245253563
1718311090574485500,1.972485595703125,-0.10716930776834488,0.0325532928109169,-0.46402430534362793
1718311090624258600,2.022258544921875,-0.31133419275283813,0.5781370401382446,-0.5128978490829468
1718311090674031600,2.072031494140625,-0.1100846454501152,0.02718190662562847,-0.4497624635696411
1718311090723804700,2.1218046875,0.0017688227817416191,0.1364380121231079,-0.29380565881729126
1718311090773577700,2.17157763671875,-0.08440227806568146,0.1504688262939453,-0.0076514957472682
1718311090823350800,2.221350830078125,-0.0441860556602478,0.22048212587833405,-0.2836877405643463
1718311090873123600,2.27112353515625,0.08594205230474472,0.062095437198877335,-0.38973790407180786
1718311090922898000,2.32089794921875,-0.258009135723114,0.0686650201678276,-0.05709117278456688
1718311090972670700,2.370670654296875,-0.07784170657396317,0.030852993950247765,-0.2023104727268219
1718311091022443800,2.42044384765625,0.2166694700717926,0.041997186839580536,-0.023329919204115868
1718311091072216800,2.470216796875,-0.14268262684345245,0.017091652378439903,-0.019374635070562363
1718311091121989600,2.51998974609375,-0.02522578090429306,-0.07334364950656891,-0.17502406239509583
1718311091171762700,2.5697626953125,-0.08414307236671448,-0.14636090397834778,0.07573645561933517
1718311091221535700,2.61953564453125,0.026605799794197083,-0.01240113191306591,-0.1355215311050415
1718311091271308500,2.66930859375,0.12930060923099518,-0.18680952489376068,0.030811965465545654
1718311091321081600,2.71908154296875,0.07885444909334183,0.020001351833343506,-0.05733802169561386
1718311091370856000,2.76885595703125,-0.057935748249292374,-0.025294119492173195,0.0030111572705209255
1718311091420628700,2.818628662109375,0.09295199811458588,-0.0927848368883133,-0.03874816372990608
1718311091470401800,2.86840185546875,-0.045532941818237305,0.0023586282040923834,0.015669384971261024
1718311091520174800,2.9181748046875,-0.09075407683849335,0.010006208904087543,-0.08812173455953598
1718311091569947600,2.96794775390625,0.03882281109690666,0.14250051975250244,-0.2269781231880188
1718311091619720700,3.017720703125,0.3894859850406647,0.274860143661499,0.11959215998649597
1718311091669493800,3.06749365234375,0.30626094341278076,-0.21455872058868408,0.32161909341812134
1718311091719266600,3.1172666015625,0.1308571696281433,0.08704693615436554,0.19318415224552155
1718311091769039600,3.16703955078125,0.2522648572921753,-0.27899840474128723,0.2492741048336029
1718311091818812700,3.216812744140625,0.1942715346813202,0.09528222680091858,0.24542373418807983
1718311091868586500,3.26658642578125,0.050238724797964096,-0.09658036381006241,0.2820737361907959
1718311091918359600,3.316359619140625,0.15388043224811554,-0.026874195784330368,-0.07454847544431686
1718311091968132600,3.366132568359375,-0.12411533296108246,0.11051922291517258,0.15239585936069489
1718311092017905400,3.415905517578125,-0.07485091686248779,0.022047610953450203,-0.1407354474067688
1718311092067678500,3.465678466796875,-0.11419365555047989,0.1662505865097046,-0.15652625262737274
1718311092117451800,3.51545166015625,-0.254488468170166,-0.035017229616642,-0.12142382562160492
1718311092167224600,3.565224609375,-0.059337444603443146,0.13049614429473877,-0.06582058221101761
1718311092216997600,3.61499755859375,-0.10130582749843597,-0.23134027421474457,-0.10820237547159195
1718311092266770700,3.664770751953125,-0.13266117870807648,0.12155591696500778,-0.18070988357067108
1718311092316544500,3.71454443359375,-0.10258225351572037,-0.06794120371341705,-0.02409888431429863
1718311092366317600,3.764317626953125,-0.18819591403007507,0.08337150514125824,-0.018103860318660736
1718311092416090400,3.81409033203125,-0.05203937739133835,-0.06115981191396713,-0.07530717551708221
1718311092465863400,3.863863525390625,-0.14950361847877502,0.16914363205432892,0.0024133622646331787
1718311092515636700,3.91363671875,0.0057482910342514515,-0.08384174108505249,-0.004536422900855541
1718311092565409500,3.963409423828125,-0.029028931632637978,0.054471999406814575,-0.08834081888198853
1718311092615182600,4.0131826171875,-0.028175126761198044,0.04166971147060394,-0.1620176136493683
1718311092664955600,4.06295556640625,0.1605512499809265,-0.020954091101884842,-0.06809572130441666
1718311092714729700,4.112729736328125,-0.04090861976146698,0.008341038599610329,0.06087315455079079
1718311092764502800,4.162502685546875,0.0031006059143692255,-0.015982655808329582,0.036700744181871414
1718311092814275800,4.21227587890625,0.0796487107872963,0.0589895099401474,0.013866047374904156
1718311092864048600,4.262048583984375,-0.047137532383203506,-0.006950810085982084,-0.04515869915485382
1718311092913821700,4.31182177734375,0.023880021646618843,0.014299362897872925,-0.10433287918567657
1718311092963594800,4.3615947265625,-0.07526132464408875,0.04545700550079346,-0.04391917213797569
1718311093013367600,4.411367431640625,-0.10591405630111694,0.00048112275544553995,-0.007006504572927952
1718311093063140600,4.461140625,-0.1504562646150589,0.04940297454595566,-0.10258281230926514
1718311093112914000,4.510913818359375,-0.3029105067253113,0.18808123469352722,-0.17104016244411469
1718311093162686700,4.560686767578125,-0.63825523853302,-0.34827977418899536,0.5625961422920227
1718311093212459800,4.610459716796875,-0.7667008638381958,-0.25957193970680237,0.8785701394081116
1718311093262233900,4.66023388671875,-0.03709295019507408,0.968619704246521,-0.00872919149696827
1718311093312006700,4.710006591796875,-0.02217445708811283,0.6890978217124939,-0.3788062334060669
1718311093361779700,4.75977978515625,0.035908058285713196,-0.8481708765029907,-0.35732296109199524
1718311093411552800,4.809552734375,-0.9111841917037964,-1.211670994758606,-0.6225191354751587
1718311093461325600,4.85932568359375,-0.4924198091030121,-0.6449025273323059,0.03309721127152443
1718311093511098600,4.9090986328125,0.2551533877849579,0.4230988025665283,-0.23737505078315735
1718311093560872000,4.958871826171875,0.1699674427509308,0.10996641218662262,-0.040921662002801895
1718311093610644700,5.008644775390625,0.12484370917081833,0.11676446348428726,0.17175929248332977
1718311093660417800,5.058417724609375,0.16700899600982666,0.14366458356380463,-0.05022617429494858
1718311093710190600,5.108190673828125,0.11176244169473648,0.3039497137069702,0.08687421679496765
1718311093759963400,5.15796337890625,0.19107753038406372,0.12521986663341522,0.173146590590477
1718311093809736400,5.207736328125,-0.06268052756786346,0.14625966548919678,0.11759646981954575
1718311093859510800,5.2575107421875,-0.062303636223077774,-0.007347910199314356,-0.00801252480596304
1718311093909283600,5.30728369140625,0.023037198930978775,0.14828051626682281,-0.11705448478460312
1718311093959056600,5.357056640625,-0.022977124899625778,0.16932831704616547,-0.2801989018917084
1718311094008829700,5.40682958984375,-0.03487783297896385,0.1793045550584793,-0.122615747153759
1718311094058602500,5.4566025390625,0.02935430407524109,-0.06275847554206848,0.011906709522008896
1718311094108375600,5.50637548828125,-0.026396622881293297,0.2435644567012787,-0.08786884695291519
1718311094158148600,5.556148681640625,0.008272446691989899,-0.05826619639992714,-0.08123192191123962
1718311094207921400,5.60592138671875,0.24468377232551575,0.06857398897409439,0.05667295679450035
1718311094257694500,5.655694580078125,0.2937636971473694,-0.06906328350305557,-0.08187303692102432
1718311094307467500,5.705467529296875,0.38091474771499634,0.11124442517757416,-0.037837326526641846
1718311094357240600,5.755240478515625,0.3278636038303375,-0.04443730041384697,0.15332111716270447
1718311094407013600,5.805013671875,-0.18389499187469482,0.03593716397881508,-0.14726464450359344
1718311094456786700,5.85478662109375,-0.32959532737731934,0.19038096070289612,-0.42979151010513306
1718311094506559500,5.9045595703125,-0.021244540810585022,0.03828435763716698,-0.2533302903175354
1718311094556333600,5.95433349609375,-0.014420785941183567,0.1282275766134262,-0.08152831345796585
1718311094606106600,6.004106689453125,0.10211268812417984,0.0414712019264698,-0.20602421462535858
1718311094655879400,6.05387939453125,-0.057665370404720306,0.09996278584003448,-0.2961547374725342
1718311094705653500,6.103653564453125,0.01757333241403103,0.21014286577701569,-0.13374611735343933
1718311094755426300,6.15342626953125,0.31739041209220886,0.2309199869632721,0.21988987922668457
1718311094805199400,6.203199462890625,0.25361213088035583,0.1949322670698166,0.3135386109352112
1718311094854972400,6.252972412109375,0.426758736371994,0.3481783866882324,0.45204809308052063
1718311094904745200,6.3027451171875,0.3438161015510559,0.5655551552772522,0.1864926517009735
1718311094954518300,6.352518310546875,0.22803162038326263,0.4224492311477661,0.014570383355021477
1718311095004291300,6.402291259765625,0.009466863237321377,0.5650051832199097,-0.27370238304138184
1718311095054064400,6.452064453125,0.13709187507629395,0.3448374569416046,-0.19294215738773346
1718311095103837200,6.501837158203125,-0.005603069439530373,0.34338685870170593,-0.07182914763689041
1718311095153610500,6.551610595703125,0.02626918815076351,0.17696203291416168,-0.07257284969091415
1718311095203384300,6.60138427734375,-0.10264039039611816,0.16624069213867188,-0.2378343939781189
1718311095253157400,6.651157470703125,0.1221114844083786,-0.015849635004997253,-0.18502318859100342
1718311095302930400,6.700930419921875,-0.1877993792295456,-0.2294435054063797,-0.04438776522874832
1718311095352703200,6.750703125,-0.12693583965301514,0.06477334350347519,-0.5263210535049438
1718311095402476300,6.800476318359375,-0.013530818745493889,0.32697051763534546,-0.2639611065387726
1718311095452249300,6.850249267578125,0.27300772070884705,0.37170177698135376,0.37263211607933044
1718311095502022100,6.900022216796875,0.23874928057193756,-0.2585934102535248,0.7400071620941162
1718311095551795200,6.949795166015625,-0.02414749562740326,0.1972225457429886,-0.27056461572647095
1718311095601568500,6.999568603515625,0.5340039134025574,0.2672978341579437,-0.22031474113464355
1718311095651341300,7.04934130859375,0.36478668451309204,0.09491034597158432,0.15466339886188507
1718311095701113600,7.099113525390625,0.3876800835132599,0.17997242510318756,0.08263424783945084
1718311095750887000,7.148886962890625,0.597576916217804,0.0022051038686186075,0.12980569899082184
1718311095800660000,7.198659912109375,0.21318820118904114,0.1775122433900833,-0.10616490244865417
1718311095850432800,7.248432861328125,0.39414089918136597,-0.18990814685821533,0.14501027762889862
1718311095900205800,7.298205810546875,0.21315497159957886,-0.15417490899562836,-0.0016133212484419346
1718311095949980000,7.34797998046875,-0.007902760989964008,0.0695246160030365,-0.017743874341249466
1718311095999752700,7.397752685546875,-0.09337475895881653,-0.6438060998916626,-0.03879581391811371
1718311096049525800,7.44752587890625,-0.30460959672927856,0.05648826062679291,-0.3211818337440491
1718311096099298800,7.497298828125,-0.311463862657547,-0.22750331461429596,-0.09091971069574356
1718311096149072000,7.54707177734375,0.11822173744440079,-0.24708661437034607,0.4198405146598816
1718311096198845000,7.596844970703125,0.008646614849567413,-0.11413206905126572,0.22027689218521118
1718311096248618000,7.646617919921875,-0.25145813822746277,-0.005417384207248688,0.2366819977760315
1718311096298390800,7.696390869140625,-0.23850642144680023,0.17540982365608215,0.11590749025344849
1718311096348163800,7.746163818359375,-0.03396042436361313,0.0307227224111557,-0.22926315665245056
1718311096397937000,7.79593701171875,-0.20638102293014526,-0.024598127231001854,0.0958603098988533
1718311096447709700,7.845709716796875,-0.09891819953918457,-0.22507184743881226,-0.1241120845079422
1718311096497482800,7.895482666015625,-0.29481983184814453,0.1231885775923729,-0.16251173615455627
1718311096547255800,7.945255859375,-0.10606754571199417,-0.17394140362739563,-0.11689557880163193
1718311096597028600,7.995028564453125,-0.3789784610271454,0.12390398979187012,-0.2784256041049957
1718311096646801700,8.0448017578125,-0.42913511395454407,0.18613065779209137,-0.11494257301092148
1718311096696575500,8.094575439453125,-0.24038176238536835,0.053449541330337524,0.30301016569137573
1718311096746349300,8.144349365234374,-0.08625207096338272,0.024955620989203453,0.45862269401550293
1718311096796122400,8.194122314453125,-0.45714157819747925,-0.06534327566623688,0.2922455370426178
1718311096845895200,8.243895263671876,-0.9347255229949951,-0.08492234349250793,0.47347649931907654
1718311096895668200,8.293668212890625,-0.6711218953132629,-0.9812934994697571,1.017053246498108
1718311096945441300,8.343441162109375,-0.7830690145492554,-2.8373360633850098,0.9746729731559753
1718311096995214300,8.39321435546875,-0.5443745255470276,-0.266611784696579,-0.4114808142185211
1718311097044987100,8.442987060546875,0.6228914260864258,1.3511638641357422,-1.3473986387252808
1718311097094760400,8.492760498046875,0.0727459043264389,-0.5466256141662598,0.06817226856946945
1718311097144533500,8.542533447265624,0.08298330754041672,-0.2943055033683777,0.5522186160087585
1718311097194306300,8.592306396484375,0.06605140119791031,-0.20489385724067688,0.08614636212587357
1718311097244079400,8.642079345703126,-0.11185158044099808,-0.031225457787513733,-0.31133097410202026
1718311097293852400,8.691852294921874,0.030840203166007996,-0.08427473157644272,-0.42083460092544556
1718311097343625200,8.741625244140625,-0.02084803767502308,-0.28949740529060364,-0.3106648623943329
1718311097393398300,8.791398193359376,0.3481738865375519,-0.39488422870635986,-0.4623747169971466
1718311097443171300,8.84117138671875,0.6970351934432983,-0.3332866132259369,-0.11925379186868668
1718311097492944100,8.890944091796875,0.9454675316810608,0.2649552524089813,0.27439355850219727
1718311097542717200,8.94071728515625,0.6034196019172668,-0.07556407898664474,0.07905509322881699
1718311097592490500,8.990490478515625,0.6386232972145081,0.47545644640922546,0.6012080907821655
1718311097642263300,9.04026318359375,0.5360288619995117,0.26899611949920654,0.8264642953872681
1718311097692037000,9.090037109375,0.4217897653579712,-0.44880083203315735,1.3295844793319702
1718311097741810200,9.13981005859375,-0.047262050211429596,0.12743639945983887,1.0384547710418701
1718311097791583000,9.1895830078125,0.11877135187387466,-0.24516227841377258,1.3435148000717163
1718311097841356000,9.23935595703125,-0.17583313584327698,-0.29475051164627075,0.838556706905365
1718311097891129000,9.289129150390625,-0.4855804741382599,-0.4902423322200775,0.5743995904922485
1718311097940902000,9.33890185546875,-0.6153823733329773,-0.5164204835891724,0.369885116815567
1718311097990675000,9.388675048828125,-0.481625497341156,0.1444898098707199,-0.12040586024522781
1718311098040448000,9.438447998046875,-0.7044405937194824,0.04458694905042648,-0.09028560668230057
1718311098090221000,9.488220947265624,-0.7575553059577942,0.11439730226993561,0.011350024491548538
1718311098139994000,9.537994140625,-0.5697643160820007,-0.16338445246219635,-0.2051668018102646
1718311098189767200,9.58776708984375,-0.654238760471344,0.23481278121471405,-0.3575255572795868
1718311098239540200,9.637540283203125,-0.39657825231552124,-0.40190908312797546,-0.03614051640033722
1718311098289313000,9.68731298828125,-0.4646948277950287,-0.17214295268058777,-0.1795172095298767
1718311098339086000,9.737086181640626,-0.2314932495355606,-0.22361382842063904,-0.12159660458564758
1718311098388859100,9.786859130859375,-0.24506662786006927,-0.12356177717447281,-0.06367431581020355
1718311098438632000,9.8366318359375,-0.2724200487136841,-0.2689324915409088,0.08314885199069977
1718311098488405000,9.886405029296874,-0.1948230117559433,-0.32394441962242126,-0.11372197419404984
1718311098538178000,9.936177978515625,-0.2849865257740021,-0.0881350114941597,0.14311431348323822
1718311098587951000,9.985951171875,-0.3419271409511566,-0.28188052773475647,-0.21985425055027008
1718311098637724200,10.03572412109375,-0.3825872838497162,0.20770949125289917,-0.12813954055309296
1718311098687497200,10.085497314453125,-0.32379576563835144,-0.279683381319046,0.019742431119084358
1718311098737270000,10.13527001953125,-0.3288031220436096,0.18946091830730438,-0.07798885554075241
1718311098787043000,10.18504296875,-0.17569629848003387,-0.24514110386371613,0.20683562755584717
1718311098836816400,10.23481640625,-0.2088320106267929,0.3472275137901306,-0.25665283203125
1718311098886589200,10.284589111328126,-0.1886124461889267,0.018389351665973663,-0.1263483315706253
1718311098936362200,10.3343623046875,-0.11733613163232803,0.299609899520874,-0.20356953144073486
1718311098986135300,10.38413525390625,-0.10903362184762955,0.33576682209968567,-0.4112684726715088
1718311099035908000,10.433908203125,0.2444370687007904,0.5832185745239258,-0.166596919298172
1718311099085681200,10.48368115234375,0.07156801968812943,0.38340967893600464,-0.4149700105190277
1718311099135454200,10.5334541015625,0.04409536346793175,0.31421175599098206,-0.5245062112808228
1718311099185227300,10.583227294921874,0.05211681127548218,-0.4276338815689087,-0.11212163418531418
1718311099235000000,10.633,0.0875985324382782,-0.4137279689311981,0.1886795461177826
1718311099284773000,10.682773193359376,0.5293478965759277,0.6430142521858215,0.07550466805696487
1718311099334546200,10.732546142578125,0.3991829752922058,-0.14168907701969147,0.27007412910461426
1718311099384319200,10.7823193359375,0.2257855385541916,0.4174182713031769,0.24716569483280182
1718311099434092300,10.83209228515625,0.22914175689220428,-0.06851405650377274,0.1415310651063919
1718311099483865300,10.881865234375,-0.06690719723701477,0.11771515011787415,-0.08967188000679016
1718311099533638100,10.93163818359375,-0.13772115111351013,-0.366095632314682,-0.29159390926361084
1718311099583411200,10.9814111328125,-0.23443295061588287,0.2545677423477173,-0.3375045955181122
1718311099633184300,11.031184326171875,-0.35496601462364197,-0.5535706877708435,0.022204764187335968
1718311099682957000,11.08095703125,-0.589396059513092,-0.34834548830986023,-0.4845706522464752
1718311099732730000,11.130730224609374,-0.3026960492134094,-1.3227219581604004,-0.2241683453321457
1718311099782503200,11.180503173828125,-0.40293455123901367,-1.0570216178894043,-0.015568939968943596
1718311099832276200,11.230276123046876,-0.19139081239700317,-1.465216040611267,0.554801881313324
1718311099882049000,11.280049072265625,-0.34275251626968384,-0.23921437561511993,0.07943865656852722
1718311099931822000,11.329822021484375,-0.3676239252090454,-0.44172778725624084,0.07943983376026154
1718311099981595100,11.37959521484375,-0.09427687525749207,0.2801637053489685,-0.11057629436254501
1718311100031368000,11.429367919921875,0.05079485476016998,-0.13677270710468292,0.06876173615455627
1718311100081141000,11.47914111328125,0.19154532253742218,0.25066497921943665,0.017844846472144127
1718311100130914000,11.5289140625,0.3413991332054138,-0.08270670473575592,-0.2634841203689575
1718311100180686800,11.578686767578125,0.4346245229244232,0.09467409551143646,-0.22867828607559204
1718311100230460200,11.628460205078126,0.3493383228778839,0.07745887339115143,-0.42658862471580505
1718311100280233200,11.678233154296874,0.3220089375972748,-0.025260137394070625,-0.39739710092544556
1718311100330006000,11.728006103515625,0.37723761796951294,-0.03381913900375366,-0.1397102028131485
1718311100379779000,11.777779052734376,0.20455923676490784,-0.5588001608848572,0.844759464263916
1718311100429552000,11.82755224609375,0.09686113148927689,-0.10233312100172043,0.9126508235931396
1718311100479325200,11.8773251953125,0.1781584620475769,0.19462257623672485,0.8466667532920837
1718311100529098000,11.927097900390624,-0.048952993005514145,0.07100874930620193,0.6494884490966797
1718311100578871000,11.97687109375,-0.12409079074859619,-0.06364060193300247,0.16026635468006134
1718311100628644000,12.02664404296875,-0.42848122119903564,-0.027283648028969765,0.06018815189599991
1718311100678417000,12.0764169921875,-0.3352756202220917,0.24804022908210754,0.004243467003107071
1718311100728190200,12.126190185546875,-0.043467577546834946,-0.2028917521238327,0.36751317977905273
1718311100777963300,12.17596337890625,0.17965957522392273,-0.22491559386253357,-0.2357373982667923
1718311100827736000,12.225736083984375,0.16330742835998535,-0.210539773106575,-0.5498844981193542
1718311100877509000,12.275509033203125,0.1126946434378624,-0.29225754737854004,-0.243036687374115
1718311100927282200,12.3252822265625,-0.13196921348571777,-0.28008535504341125,-0.4163387417793274
1718311100977055000,12.375054931640625,-0.10955853760242462,-0.14895987510681152,0.13545408844947815
1718311101026828000,12.424828125,-0.15772829949855804,-0.28967997431755066,0.6613879799842834
1718311101076600000,12.47460009765625,-0.22073949873447418,0.09584905207157135,0.7281209230422974
1718311101126373000,12.524373046875,-0.2704353332519531,0.011642219498753548,0.5034484267234802
1718311101176146000,12.57414599609375,-0.09633417427539825,0.19553245604038239,0.3489053547382355
1718311101225919000,12.6239189453125,-0.04388086497783661,0.3784167468547821,-0.5714938044548035
1718311101275692000,12.673692138671875,0.200984388589859,0.3798154592514038,-0.2568967938423157
1718311101325465000,12.723465087890625,0.4091673791408539,-0.09414022415876389,-0.03078153170645237
1718311101375238100,12.773238037109374,0.5022209882736206,0.292385071516037,-0.29603251814842224
1718311101425011200,12.82301123046875,0.6595026850700378,-0.20326074957847595,-0.5317190885543823
1718311101474784300,12.8727841796875,0.5748447775840759,0.0650726854801178,-0.9030801057815552
1718311101524557000,12.92255712890625,0.3857496380805969,0.05952799692749977,-0.07201878726482391
1718311101574330000,12.972330078125,0.2726365029811859,0.28034707903862,1.2304641008377075
1718311101624103200,13.022103271484376,0.3206835687160492,-0.4710652828216553,1.5577447414398193
1718311101673876000,13.0718759765625,-0.14912049472332,0.21190005540847778,0.7077601552009583
1718311101723649000,13.12164892578125,-0.47134262323379517,-0.17612266540527344,0.17042115330696106
1718311101773422000,13.171422119140624,-0.5748863816261292,0.2010195404291153,-0.3782845139503479
1718311101823195000,13.22119482421875,-0.30496498942375183,0.1057807207107544,-0.0016073156148195267
1718311101872968000,13.270968017578125,-0.16506557166576385,-0.23823224008083344,-0.05275321379303932
1718311101922740000,13.320739990234374,-0.131387859582901,-0.4005703628063202,-0.47155219316482544
1718311101972513000,13.370512939453125,-0.09177868813276291,-0.11592952162027359,-0.5859849452972412
1718311102022285800,13.420285888671875,-0.09817880392074585,-0.09551099687814713,-1.028754711151123
1718311102072059000,13.470058837890624,-0.056841474026441574,-0.37113118171691895,-0.5647860765457153
1718311102121832000,13.51983203125,-0.027839036658406258,0.04733092710375786,0.023727992549538612
1718311102171605000,13.56960498046875,0.10171866416931152,-0.39406633377075195,0.7241576313972473
1718311102221378000,13.6193779296875,0.2898922562599182,-1.1085659265518188,0.7320288419723511
1718311102271151000,13.669151123046875,0.8140363097190857,-1.6525670289993286,0.5134180784225464
1718311102320924200,13.718924072265626,1.543267846107483,-1.6063817739486694,-0.6984107494354248
1718311102370697000,13.768697021484375,1.9111233949661255,-2.9091715812683105,0.3938191831111908
1718311102420470000,13.818469970703125,1.5288617610931396,-6.091930866241455,1.9846135377883911
1718311102470243000,13.8682431640625,1.8107240200042725,-4.8638505935668945,1.4387016296386719
1718311102520016000,13.918015869140625,3.299793243408203,-3.6531028747558594,1.1686131954193115
1718311102569788000,13.967787841796875,3.4471280574798584,-1.8707213401794434,0.8278623819351196
1718311102619561000,14.01756103515625,6.037256240844727,1.5491455793380737,-0.36670878529548645
1718311102669334000,14.067333984375,5.117571830749512,0.2273469865322113,0.9767531752586365
1718311102719107000,14.117107177734376,3.979234218597412,-1.238722324371338,3.5100300312042236
1718311102768880000,14.166880126953124,1.9895082712173462,-1.7523514032363892,3.4213497638702393
1718311102818653200,14.216653076171875,-0.9018387198448181,-1.804269552230835,3.2628021240234375
1718311102868426000,14.266426025390626,-3.7310049533843994,-0.3532927632331848,0.6632570624351501
1718311102918199000,14.316198974609375,-1.860242247581482,-0.41641682386398315,0.4743562340736389
1718311102967972000,14.36597216796875,0.5620367527008057,-1.6538751125335693,1.0773890018463135
1718311103017745000,14.415744873046876,0.38278332352638245,3.295802593231201,-1.0406076908111572
1718311103067518000,14.46551806640625,0.35745930671691895,1.5428754091262817,-1.5187296867370605
1718311103117290000,14.5152900390625,-0.41917291283607483,0.30481430888175964,-1.4127445220947266
1718311103167063000,14.56506298828125,-1.2426643371582031,-1.6127541065216064,-1.5700024366378784
1718311103216836000,14.614836181640625,1.1460580825805664,-7.100559234619141,-0.7247072458267212
1718311103266609000,14.66460888671875,2.5208616256713867,-2.093093156814575,0.2719137668609619
1718311103316382200,14.71438232421875,0.7172762155532837,-3.2774410247802734,-0.43424832820892334
1718311103366155300,14.7641552734375,-0.7107469439506531,-3.1893110275268555,-0.17881125211715698
1718311103415928000,14.813927978515625,-1.960639238357544,-1.3387391567230225,-1.0145105123519897
1718311103465701000,14.863701171875,-0.6426941156387329,-0.433518648147583,-1.1656960248947144
1718311103515474200,14.91347412109375,-0.07205398380756378,-0.7999957203865051,0.40220317244529724
1718311103565247000,14.9632470703125,0.5239963531494141,-0.38132935762405396,1.0910279750823975
1718311103615020000,15.01302001953125,0.7360199093818665,1.6390033960342407,0.6217571496963501
1718311103664792000,15.0627919921875,2.308960437774658,1.8938319683074951,0.6050121188163757
1718311103714564600,15.112564697265626,2.942093849182129,1.7864022254943848,2.2725911140441895
1718311103764337700,15.162337646484374,3.1993730068206787,-0.30747348070144653,7.209070205688477
1718311103814110500,15.2121103515625,2.750143527984619,-0.7664239406585693,3.1987805366516113
1718311103863883500,15.261883544921876,1.1486878395080566,-0.8672835230827332,1.1701483726501465
1718311103913656800,15.31165673828125,-1.697035551071167,2.0792837142944336,0.2730836868286133
1718311103963429600,15.3614296875,-0.031966667622327805,4.212181568145752,-0.5814729332923889
1718311104013202700,15.41120263671875,0.1983550637960434,-1.3428518772125244,1.526803731918335
1718311104062974700,15.460974609375,0.24228790402412415,0.7435907125473022,0.5766226053237915
1718311104112747800,15.510747802734375,6.916969299316406,-2.2340118885040283,1.440303087234497
1718311104162520600,15.5605205078125,0.9052481055259705,-2.160485029220581,-0.6472510695457458
1718311104212293600,15.610293701171875,-0.14453643560409546,-0.06501897424459457,-0.785050094127655
1718311104262066700,15.660066650390625,-0.770277202129364,-1.000956654548645,-1.442274570465088
1718311104311839500,15.709839599609374,0.5503218770027161,0.27616947889328003,-2.428969144821167
1718311104361612500,15.759612548828125,0.4754869341850281,-0.4283524453639984,-3.0208346843719482
1718311104411384600,15.809384521484375,0.9485433101654053,-1.233701229095459,-3.7109053134918213
1718311104461157600,15.85915771484375,1.4076989889144897,-2.9091458320617676,-3.3238775730133057
1718311104510930400,15.908930419921875,0.6506785154342651,-2.7247579097747803,-3.408567428588867
1718311104560703500,15.958703369140625,0.6129502058029175,-1.6038347482681274,-1.7011065483093262
1718311104610476500,16.0084765625,0.521735668182373,-2.0499539375305176,-1.0839439630508423
1718311104660249600,16.05824951171875,-0.6509932279586792,0.6529513597488403,1.0000746250152588
1718311104710022000,16.10802197265625,-0.8802330493927002,0.33499255776405334,1.045038104057312
1718311104759795000,16.157794921875,-1.1128181219100952,1.1785821914672852,2.163846969604492
1718311104809568300,16.207568359375,-1.513339638710022,2.0269381999969482,2.6804144382476807
1718311104859341000,16.257341064453126,-1.2699207067489624,2.9143989086151123,3.3854212760925293
1718311104909114000,16.307114013671875,-1.5256153345108032,-0.4522968530654907,2.9258229732513428
1718311104958887200,16.35688720703125,-0.5524261593818665,1.4926908016204834,1.4053173065185547
1718311105008660000,16.406659912109376,-0.936866283416748,1.2181603908538818,2.20174241065979
1718311105058432000,16.456431884765625,-0.2095339149236679,4.078255653381348,1.225992202758789
1718311105108205000,16.506205078125,-0.23083683848381042,-1.1771395206451416,1.1646150350570679
1718311105157978000,16.55597802734375,-0.03463054448366165,2.0891222953796387,0.3705873489379883
1718311105207751000,16.6057509765625,0.20016348361968994,-0.30367252230644226,0.15961579978466034
1718311105257524000,16.65552392578125,0.2796498239040375,-0.3036186695098877,-0.42585107684135437
1718311105307297000,16.705297119140624,0.2680484354496002,-0.7467566728591919,-1.5592749118804932
1718311105357070000,16.755070068359377,1.2772775888442993,-1.1300333738327026,-2.7600297927856445
1718311105406842000,16.804842041015625,1.006240963935852,0.3372085690498352,-3.130997657775879
1718311105456615000,16.854614990234374,0.9652398228645325,-0.27812764048576355,-3.8455686569213867
1718311105506388200,16.90438818359375,0.5325968265533447,-1.2737592458724976,-3.1951966285705566
1718311105556161300,16.954161376953124,0.007119580637663603,-2.988006353378296,-3.6383442878723145
1718311105605934000,17.00393408203125,0.21008723974227905,-2.4103596210479736,-1.9008705615997314
1718311105655707100,17.05370703125,0.41590461134910583,-1.6334826946258545,-1.5720890760421753
1718311105705479400,17.1034794921875,-0.5126319527626038,0.11784258484840393,0.36218351125717163
1718311105755251500,17.15325146484375,-0.6807471513748169,1.5807640552520752,1.7261910438537598
1718311105805024500,17.2030244140625,-0.9555460810661316,2.196474075317383,2.6057705879211426
1718311105854797300,17.25279736328125,-1.4206414222717285,2.385099172592163,3.0398080348968506
1718311105904570400,17.3025703125,-1.005743384361267,3.216998815536499,3.90514874458313
1718311105954343700,17.35234375,-0.8490986227989197,-0.07366453111171722,2.92983341217041
1718311106004116500,17.402116455078126,0.31091147661209106,-0.511269211769104,2.140254259109497
1718311106053888500,17.451888427734374,-0.6331911087036133,1.1459828615188599,1.7825369834899902
1718311106103661600,17.50166162109375,-0.8183000087738037,4.569797515869141,1.7169930934906006
1718311106153434600,17.5514345703125,0.16039082407951355,-2.397366523742676,0.525619626045227
1718311106203207400,17.60120751953125,-0.33627355098724365,1.8584446907043457,0.3580982983112335
1718311106252980500,17.65098046875,0.22697405517101288,-0.6220666766166687,-0.16401995718479156
1718311106302753500,17.70075341796875,0.39706021547317505,-0.25079163908958435,-0.8579199910163879
1718311106352525600,17.750525634765626,0.1987728476524353,-1.8908017873764038,-1.9419572353363037
1718311106402298400,17.80029833984375,0.30701181292533875,-1.7555609941482544,-4.1204423904418945
1718311106452071400,17.850071533203124,1.9431421756744385,-1.213599681854248,-4.950600624084473
1718311106501844500,17.899844482421877,3.5769736766815186,-1.7139339447021484,-3.6077075004577637
1718311106551617300,17.9496171875,-0.5989490151405334,-1.158795714378357,-3.078733444213867
1718311106601390300,17.999390380859374,0.4456298351287842,-1.8444569110870361,-1.812105417251587
1718311106651162400,18.049162353515626,0.3144403398036957,-3.9517974853515625,-2.1365411281585693
1718311106700936000,18.09893603515625,-0.7380245327949524,0.4103999733924866,0.7358123660087585
1718311106750708700,18.148708740234376,-1.0423871278762817,0.9930258989334106,1.5841314792633057
1718311106800481800,18.198481689453125,-1.329493761062622,2.6686253547668457,3.0205531120300293
1718311106850254800,18.2482548828125,-1.5087124109268188,2.796729803085327,3.3647725582122803
1718311106900027600,18.298027587890626,-0.9889689683914185,2.447672128677368,3.812143087387085
1718311106949799700,18.347799560546875,-1.5249983072280884,-1.056086778640747,2.7050678730010986
1718311106999572700,18.39757275390625,-0.5093766450881958,1.5648012161254883,2.1855084896087646
1718311107049345800,18.447345703125,-0.6192182898521423,1.9962698221206665,1.3271117210388184
1718311107099118600,18.49711865234375,-0.4090128242969513,1.9940131902694702,1.2635397911071777
1718311107148892000,18.546891845703126,0.08205869048833847,-0.5182516574859619,0.5330560207366943
1718311107198665000,18.5966650390625,-0.03953820466995239,0.7782561182975769,0.42092472314834595
1718311107248437000,18.64643701171875,0.2875058650970459,-0.1387314796447754,-0.37928035855293274
1718311107298209800,18.696209716796876,0.41722339391708374,-1.232122540473938,-1.3674192428588867
1718311107347982800,18.74598291015625,0.16807231307029724,-2.035478115081787,-3.414696455001831
1718311107397756000,18.795755859375,1.4007433652877808,-1.2902569770812988,-4.79185676574707
1718311107447529000,18.845529052734374,2.9403557777404785,-0.35768046975135803,-3.799445152282715
1718311107497301800,18.8953017578125,0.6787082552909851,-2.5891125202178955,-3.4453041553497314
1718311107547073800,18.94507373046875,0.13746969401836395,-2.1329495906829834,-2.406285285949707
1718311107596846800,18.994846923828124,0.32110247015953064,-2.3561594486236572,-2.0970633029937744
1718311107646620000,19.044619873046877,-0.3702036440372467,-1.081113338470459,-0.0848945677280426
1718311107696392700,19.094392822265625,-0.59446781873703,0.7799205183982849,1.4664844274520874
1718311107746166000,19.144166015625,-0.47712621092796326,3.316845417022705,3.000736951828003
1718311107795938000,19.19393798828125,-1.462874174118042,2.5766589641571045,3.2948598861694336
1718311107845711000,19.243711181640624,-0.9908140301704407,2.628613233566284,3.658567190170288
1718311107895484000,19.29348388671875,-1.1714606285095215,-0.801845908164978,3.1721861362457275
1718311107945257200,19.34325732421875,-0.8221040368080139,-0.3933989107608795,2.316479444503784
1718311107995030300,19.3930302734375,-0.8726097941398621,3.3560423851013184,1.5706430673599243
1718311108044802000,19.442802001953126,0.08649953454732895,1.8550000190734863,1.1245890855789185
1718311108094575000,19.4925751953125,-0.025272764265537262,-0.7666471600532532,0.6206550598144531
1718311108144348200,19.54234814453125,-0.08581438660621643,0.7761601209640503,0.22372061014175415
1718311108194121200,19.592121337890624,0.7005220055580139,-1.6951080560684204,-1.1906802654266357
1718311108243894000,19.64189404296875,0.7521302700042725,-0.6476339101791382,-2.7338969707489014
1718311108293666000,19.691666015625,0.6494715809822083,0.3283613324165344,-2.633762836456299
1718311108343439000,19.741439208984374,1.1062430143356323,-1.4756114482879639,-2.861131191253662
1718311108393212200,19.791212158203123,1.0770782232284546,-1.4902840852737427,-2.6251041889190674
1718311108442985000,19.84098486328125,0.5031195878982544,-3.6269640922546387,-3.5066041946411133
1718311108492758000,19.890758056640625,1.6761831045150757,-2.2813119888305664,-2.5873241424560547
1718311108542530000,19.940530029296873,0.3469946086406708,-1.7548580169677734,-1.9981440305709839
1718311108592303000,19.99030322265625,-0.544384241104126,-1.092787504196167,-0.17856167256832123
1718311108642076000,20.040075927734375,-1.0419374704360962,0.5164408683776855,1.0509775876998901
1718311108691849000,20.089848876953123,-0.8593868613243103,1.8421392440795898,1.738167405128479
1718311108741620200,20.1396201171875,-0.5148904919624329,1.7691000699996948,2.6147427558898926
1718311108791393300,20.189393310546876,-1.244316816329956,1.3218954801559448,3.048799753189087
1718311108841166300,20.239166259765625,-2.0891404151916504,3.082656145095825,2.4529857635498047
1718311108890939400,20.288939453125,-0.7710537910461426,0.6549676656723022,2.1847784519195557
1718311108940711200,20.338711181640626,-0.12227419763803482,1.5383752584457397,1.4353015422821045
1718311108990484500,20.388484375,-0.30933278799057007,0.5607668161392212,1.2746247053146362
1718311109040257500,20.438257568359376,-0.6139753460884094,0.9203910827636719,0.7541844844818115
1718311109090030300,20.4880302734375,-0.1977066546678543,0.4268556833267212,1.029793381690979
1718311109139803400,20.537803466796873,-0.2609328627586365,0.2416810393333435,0.716956615447998
1718311109189575400,20.587575439453126,-0.3249189555644989,-0.053506869822740555,0.8561004400253296
1718311109239348500,20.637348388671874,-0.01244560070335865,0.025705959647893906,0.24478450417518616
1718311109289121300,20.687121337890623,-0.020644472911953926,-0.3170173466205597,0.3600112795829773
1718311109338894300,20.736894287109376,0.09012725949287415,-0.11251430958509445,0.2936481535434723
1718311109388666400,20.786666259765624,0.2143086940050125,-0.497404009103775,0.013798430562019348
1718311109438439400,20.836439453125,0.37551894783973694,-0.665802001953125,-0.5479441285133362
1718311109488212200,20.886212158203126,0.10537219792604446,-0.32747113704681396,-1.050683617591858
1718311109537985300,20.9359853515625,0.4370839595794678,-0.8489304184913635,-1.1414858102798462
1718311109587757300,20.98575732421875,0.6620492339134216,-0.3723165988922119,-1.308699607849121
1718311109637530400,21.0355302734375,0.4564642310142517,-0.7793401479721069,-1.0129867792129517
1718311109687303400,21.085303466796876,0.5486871600151062,-1.6239999532699585,-1.25480055809021
1718311109737076200,21.135076171875,0.6660568118095398,-0.628936231136322,-1.163818120956421
1718311109786848300,21.18484814453125,0.5603594183921814,-0.4910000264644623,-1.0487498044967651
1718311109836621300,21.234621337890626,0.48979616165161133,-1.7797740697860718,-1.1610180139541626
1718311109886394400,21.284394287109375,0.4851992130279541,-1.0729225873947144,-0.6905125975608826
1718311109936166400,21.33416650390625,0.3403906524181366,-1.1858456134796143,-0.8242107629776001
1718311109985939200,21.383939208984376,0.2801966667175293,-0.7001689076423645,-0.533514678478241
1718311110035712300,21.433712158203125,0.25721707940101624,-0.4180862307548523,-0.3949357569217682
1718311110085485300,21.4834853515625,0.18405500054359436,-0.21138422191143036,-0.31929275393486023
1718311110135257300,21.53325732421875,0.07358486205339432,0.007345396559685469,-0.13275566697120667
1718311110185030100,21.583030029296875,0.08596692979335785,0.018101809546351433,-0.11034611612558365
1718311110234803500,21.632803466796876,0.02641042321920395,0.0770440474152565,0.03565731272101402
1718311110284575200,21.6825751953125,-0.06999251246452332,0.1154882088303566,0.09299931675195694
1718311110334348300,21.732348388671873,0.03639306500554085,0.26289936900138855,0.08172428607940674
1718311110384121300,21.782121337890626,0.20387449860572815,0.369214802980423,0.04890330508351326
1718311110433894400,21.831894287109375,0.21386952698230743,0.328046053647995,0.17606742680072784
1718311110483666400,21.88166650390625,-0.06802905350923538,0.6732405424118042,0.37028878927230835
1718311110533439500,21.931439453125,-0.21232947707176208,0.9457709193229675,0.23090679943561554
1718311110583212300,21.98121240234375,-0.011132244020700455,0.43523943424224854,0.08912503719329834
1718311110632984300,22.030984375,0.08460580557584763,-0.05104721337556839,-0.043742693960666656
1718311110682757400,22.08075732421875,0.6149420142173767,-0.7728893756866455,-0.545202374458313
1718311110732530200,22.1305302734375,0.3068726062774658,1.04622483253479,0.21209944784641266
1718311110782302200,22.18030224609375,0.5358464121818542,0.24594880640506744,-0.44109711050987244
1718311110832075000,22.230074951171876,0.3181593716144562,0.23523730039596558,-0.3353848159313202
1718311110881848000,22.27984814453125,-0.053230565041303635,0.059359241276979446,-0.5341418981552124
1718311110931620000,22.3296201171875,0.27559101581573486,-0.22842739522457123,-0.56560879945755
1718311110981393200,22.37939306640625,0.20425935089588165,-0.17442385852336884,-0.6143103837966919
1718311111031166000,22.429166015625,0.1682458519935608,-0.2325948178768158,-0.611757218837738
1718311111080939300,22.478939208984375,0.3129648268222809,-0.5894705057144165,-0.8352847099304199
1718311111130711000,22.5287109375,0.15420274436473846,-0.3548572063446045,-0.6952968239784241
1718311111180484400,22.578484375,0.15193703770637512,-0.0969996377825737,-0.5451052188873291
1718311111230256000,22.628256103515625,0.37363606691360474,-0.04545319080352783,-0.41786086559295654
1718311111280029200,22.678029296875,0.11346829682588577,0.36293715238571167,-0.27586326003074646
1718311111329802200,22.72780224609375,-0.23651519417762756,-0.3871375620365143,0.03567656874656677
1718311111379574300,22.77757421875,0.19519764184951782,-0.22484242916107178,-0.0780855342745781
1718311111429347300,22.827347412109376,-0.12038765102624893,-0.0012412361102178693,-0.05071327090263367
1718311111479120100,22.8771201171875,0.0173183660954237,-0.3760433495044708,-0.2383708357810974
1718311111528892200,22.92689208984375,-0.14155083894729614,-0.27346083521842957,-0.2335994690656662
1718311111578665200,22.976665283203126,-0.15595118701457977,0.10503505915403366,0.07501089572906494
1718311111628438300,23.026438232421874,0.01055954024195671,-0.06256809085607529,-0.0006733345799148083
1718311111678210300,23.076210205078127,0.072655089199543,-0.3049197196960449,-0.14721417427062988
1718311111727983400,23.1259833984375,-0.1698531210422516,-0.26829656958580017,-0.11297953873872757
1718311111777756400,23.17575634765625,-0.23218590021133423,-0.2657204866409302,-0.17906835675239563
1718311111827528400,23.225528564453125,-0.13344714045524597,-0.22286352515220642,-0.1729205697774887
1718311111877301500,23.275301513671874,-0.0508631207048893,-0.0688648372888565,-0.050135303288698196
1718311111927074600,23.325074462890626,-0.06507527828216553,0.22057120501995087,0.13041196763515472
1718311111976846300,23.374846435546875,-0.09200788289308548,0.1204327866435051,0.22146451473236084
1718311112026619400,23.424619384765624,-0.10203060507774353,0.09416258335113525,0.1494389921426773
1718311112076391400,23.474391357421876,-0.17256714403629303,-0.03953760862350464,0.0670335441827774
1718311112126164500,23.52416455078125,-0.19990165531635284,0.07584618031978607,0.12124534696340561
1718311112175937500,23.5739375,-0.16717422008514404,0.1857019066810608,0.1575932502746582
1718311112225709300,23.623709228515626,-0.08928446471691132,0.2627730965614319,0.1065153181552887
1718311112275482400,23.673482421875,-0.10071129351854324,0.13862702250480652,0.09007564187049866
1718311112325254400,23.72325439453125,-0.11548757553100586,0.06724858283996582,0.01731886900961399
1718311112375027500,23.77302734375,-0.0991288274526596,0.07694777846336365,-0.002198990434408188
1718311112424800500,23.822800537109377,-0.011397701688110828,0.20262855291366577,0.05786002427339554
1718311112474572500,23.872572509765625,-0.020343735814094543,0.11016911268234253,0.16888967156410217
1718311112524345300,23.922345458984374,-0.09230108559131622,0.24823451042175293,0.43578869104385376
1718311112574118400,23.972118408203126,-0.11593499034643173,-0.1952899545431137,0.5030621290206909
1718311112623890400,24.021890380859375,-0.21949194371700287,-0.3814435303211212,0.3196452260017395
1718311112673663500,24.07166357421875,-0.24154435098171234,-0.3007761538028717,0.35487067699432373
1718311112723436000,24.12143603515625,-0.38918375968933105,0.06957477331161499,0.4079418182373047
1718311112773209000,24.171208984375,-0.3193488121032715,0.39426207542419434,0.43095269799232483
1718311112822981000,24.220981201171874,-0.43931877613067627,0.8098214864730835,0.6321176886558533
1718311112872754200,24.270754150390626,-0.5237289071083069,0.9353890419006348,0.771769106388092
1718311112922527000,24.32052685546875,-0.4305059015750885,0.9011235237121582,0.9304689168930054
1718311112972299000,24.370299072265624,-0.40895962715148926,0.8673871159553528,0.9807600975036621
1718311113022072000,24.420072021484376,-0.4331356883049011,0.6466816663742065,0.955395519733429
1718311113071844000,24.469843994140625,-0.3200618326663971,0.5754694938659668,0.7685285806655884
1718311113121617200,24.5196171875,-0.3920687139034271,0.9150989055633545,0.8887503147125244
1718311113171390000,24.569389892578126,-0.20030876994132996,0.9177294373512268,0.7921916842460632
1718311113221162000,24.619161865234375,-0.2863449454307556,1.1062756776809692,0.7948338985443115
1718311113270935000,24.66893505859375,-0.24870313704013824,0.7292153239250183,0.6917411684989929
1718311113320707000,24.71870703125,-0.08679366856813431,0.3014504611492157,0.5582485795021057
1718311113370480000,24.768480224609377,-0.22435443103313446,0.49898162484169006,0.6306517720222473
1718311113420252200,24.818252197265625,0.22231550514698029,0.046243924647569656,0.37748152017593384
1718311113470025000,24.86802490234375,0.10281375050544739,-0.5399154424667358,0.6244276762008667
1718311113519798000,24.917798095703127,1.1249597072601318,3.184034585952759,-0.02424667775630951
1718311113569570000,24.967570068359375,-0.22014491260051727,0.7633880972862244,0.41910111904144287
1718311113619343000,25.017343017578124,-0.3848654627799988,1.0997319221496582,0.6748864650726318
1718311113669115100,25.067115234375,0.8798074722290039,-1.718091607093811,0.4456618130207062
1718311113718887400,25.116887451171873,-0.550733745098114,3.1613306999206543,1.156551480293274
1718311113768659500,25.166659423828126,0.141433984041214,0.056094929575920105,0.8561699986457825
1718311113818432300,25.216432373046874,0.12861332297325134,-1.4376882314682007,0.3040398061275482
1718311113868204300,25.266204345703127,0.0878543108701706,0.4027126133441925,0.11301162838935852
1718311113917977300,25.315977294921876,0.549237072467804,-0.9301391243934631,-0.5210182070732117
1718311113967749000,25.3657490234375,0.06971593201160431,0.24805830419063568,-0.21625752747058868
1718311114017522400,25.4155224609375,0.4572696387767792,-1.6391112804412842,-0.2777201533317566
1718311114067294200,25.465294189453125,0.0030077616684138775,0.9748632907867432,-0.38046780228614807
1718311114117067300,25.5150673828125,0.113679900765419,-0.2964414656162262,-0.2376796156167984
1718311114166840300,25.56484033203125,0.017018422484397888,-0.5601190328598022,-0.017244428396224976
1718311114216612400,25.6146123046875,-0.016266770660877228,0.5671918392181396,-0.0930219441652298
1718311114266385400,25.664385498046876,0.03854675218462944,-0.2619863748550415,0.2248268872499466
1718311114316157400,25.714157470703125,-0.13704176247119904,0.29629504680633545,0.4077272117137909
1718311114365930200,25.76393017578125,-0.0054307798855006695,-0.16762569546699524,0.13655443489551544
1718311114415702300,25.813702392578126,-0.11602561920881271,0.07592479884624481,0.2607913613319397
1718311114465475300,25.863475341796875,-0.1219770610332489,-0.21348389983177185,0.2193240374326706
1718311114515247400,25.913247314453123,-0.22271163761615753,-0.2025894671678543,0.1570536345243454
1718311114565020400,25.9630205078125,-0.32839006185531616,0.3666675388813019,0.2824248969554901
1718311114614792400,26.01279248046875,-0.31649309396743774,-0.07111696153879166,0.2304924875497818
1718311114664565200,26.062565185546877,-0.22165095806121826,-0.000840567983686924,0.18738380074501038
1718311114714338000,26.112338134765626,-0.19025273621082306,-0.12828569114208221,-0.025334836915135384
1718311114764111000,26.162111083984374,-0.1263861209154129,0.014669436030089855,-0.22416973114013672
1718311114813883100,26.211883056640627,-0.05945917218923569,-0.10280311107635498,-0.13839685916900635
1718311114863656000,26.261656005859376,-0.264736533164978,-0.4713820815086365,-0.3465909957885742
1718311114913428000,26.311427978515624,-0.024817336350679398,-0.10622137784957886,-0.45150619745254517
1718311114963200000,26.361199951171876,-0.11410830914974213,-0.10811250656843185,-0.6473921537399292
1718311115012973000,26.41097314453125,-0.16808994114398956,-0.5275933742523193,-0.19290268421173096
1718311115062745000,26.4607451171875,0.029651906341314316,-0.40873345732688904,-0.3227779269218445
1718311115112518100,26.51051806640625,-0.09221015870571136,0.3381112515926361,-0.37976086139678955
1718311115162290200,26.560290283203123,-0.04203946515917778,-0.06323742866516113,-0.23065690696239471
1718311115212063000,26.61006298828125,0.006794562563300133,-0.022546369582414627,0.012653207406401634
1718311115261835000,26.6598349609375,0.030719144269824028,-0.3112325668334961,-0.1109888032078743
1718311115311608000,26.709608154296873,-0.04538973793387413,-0.16490784287452698,-0.16355401277542114
1718311115361380000,26.759380126953126,0.12580609321594238,-0.3899213969707489,-0.07352939993143082
1718311115411153200,26.809153076171874,-0.06805163621902466,-0.08330513536930084,-0.33988165855407715
1718311115460925200,26.85892529296875,0.15246902406215668,-0.5379508137702942,-0.3719429075717926
1718311115510698000,26.908697998046875,-0.027494089677929878,-0.6479055881500244,-0.021020036190748215
1718311115560470000,26.958469970703124,-0.05840354040265083,-0.7815807461738586,-0.08635587990283966
1718311115610243000,27.0082431640625,-0.045936219394207,-0.285945326089859,0.0680624470114708
1718311115660015000,27.05801513671875,0.033712346106767654,0.32184508442878723,0.06681186705827713
1718311115709786400,27.107786376953126,-0.045859139412641525,0.4441194236278534,0.07533919811248779
1718311115759559400,27.157559326171874,0.0034056524746119976,-0.504310131072998,0.2994970977306366
1718311115809331500,27.20733154296875,-0.06752490252256393,-0.04997163265943527,0.22719790041446686
1718311115859104500,27.2571044921875,0.021541398018598557,0.04454081133008003,0.13731756806373596
1718311115908876500,27.30687646484375,0.0048893773928284645,0.41102659702301025,0.11969725042581558
1718311115958649300,27.3566494140625,-0.07046719640493393,0.16624018549919128,0.22897592186927795
1718311116008421400,27.40642138671875,0.003726066555827856,0.26910480856895447,0.24290931224822998
1718311116058194400,27.4561943359375,0.004030655603855848,-0.279898464679718,0.2068098783493042
1718311116107966500,27.505966552734375,-0.1066058799624443,-0.027951275929808617,0.29213178157806396
1718311116157738200,27.55573828125,0.036831099539995193,-0.30548518896102905,0.26925256848335266
1718311116207511600,27.605511474609376,-0.22537703812122345,0.4966796338558197,0.36001056432724
1718311116257283300,27.655283447265624,-0.09730559587478638,-0.08732935786247253,0.3302917182445526
1718311116307056400,27.705056396484373,-0.041626691818237305,0.4135335385799408,0.13207606971263885
1718311116356828200,27.754828125,-0.05075246840715408,0.6950642466545105,0.161943718791008
1718311116406601500,27.8046015625,0.22415275871753693,-0.7477966547012329,0.18134759366512299
1718311116456373200,27.854373291015627,-0.04507974535226822,0.3374745845794678,0.3131313621997833
1718311116506146300,27.904146240234375,0.13505829870700836,0.22521613538265228,0.1246776431798935
1718311116555918300,27.95391845703125,0.16178147494792938,-0.4143797755241394,-0.12588070333003998
1718311116605690400,28.0036904296875,0.028075385838747025,1.1073276996612549,0.1176477000117302
1718311116655463200,28.053463134765625,0.1347956657409668,0.7647317051887512,0.04417199641466141
1718311116705235200,28.103235107421874,0.3676581382751465,-0.0674494281411171,-0.5455051064491272
1718311116755009300,28.15300927734375,0.4121074974536896,-1.0909532308578491,-0.8603456020355225
1718311116804781300,28.20278125,1.1938621997833252,-1.585713505744934,-1.5670030117034912
1718311116854553300,28.25255322265625,0.7163353562355042,1.3792805671691895,-1.9200936555862427
1718311116904326100,28.302326171875,0.16325558722019196,1.5478869676589966,-1.8751952648162842
1718311116954098200,28.35209814453125,0.27540236711502075,-0.26746654510498047,-1.748950719833374
1718311117003871200,28.401871337890626,0.3608234226703644,-2.1577346324920654,-1.7571489810943604
1718311117053643300,28.451643310546874,0.05509106442332268,-1.1787244081497192,-1.6147300004959106
1718311117103415300,28.501415283203126,-0.02886957861483097,-1.1359349489212036,-1.2323447465896606
1718311117153188400,28.551188232421875,0.21246996521949768,-1.2843049764633179,-1.6522741317749023
1718311117202960100,28.600960205078124,0.9542893171310425,-1.241376280784607,-2.260749101638794
1718311117252733200,28.650733154296876,-0.23926888406276703,-0.8322082757949829,-0.7926438450813293
1718311117302505200,28.700505126953125,-0.024530526250600815,-1.1505951881408691,-0.7305742502212524
1718311117352277200,28.75027734375,-0.0524686798453331,-1.2976481914520264,-0.4023212790489197
1718311117402050300,28.80005029296875,-0.28188061714172363,-0.5578705072402954,0.09529579430818558
1718311117451822300,28.849822265625,-0.470103919506073,-0.55461585521698,0.5108410120010376
1718311117501595100,28.89959521484375,-0.5722039937973022,-0.09820415079593658,0.5772311687469482
1718311117551367200,28.9493671875,-0.7853385806083679,0.3840489685535431,1.0462034940719604
1718311117601139200,28.99913916015625,-0.6174860000610352,0.9181404709815979,1.3765226602554321
1718311117650912300,29.048912353515625,-0.9560926556587219,1.7615699768066406,1.8716387748718262
1718311117700684300,29.098684326171874,-0.7962784171104431,1.8443443775177002,1.8048489093780518
1718311117750455300,29.148455322265626,-0.7943993210792542,0.700430154800415,1.2747223377227783
1718311117800228400,29.198228271484375,-1.0083905458450317,-0.3861030638217926,1.6481996774673462
1718311117850000400,29.24800048828125,-0.9174656867980957,1.425815463066101,1.8072683811187744
1718311117899772400,29.2977724609375,-0.7535355687141418,1.1532338857650757,1.12009859085083
1718311117949545500,29.34754541015625,-0.3962971568107605,1.0403995513916016,0.9587545394897461
1718311117999317500,29.3973173828125,-0.10389237850904465,0.031663231551647186,0.8494744300842285
1718311118049090300,29.44709033203125,-0.41093289852142334,1.4904648065567017,0.993501603603363
1718311118098862300,29.4968623046875,-0.13201430439949036,0.1021827906370163,0.8557629585266113
1718311118148634400,29.54663427734375,-0.1228908821940422,0.23084001243114471,0.8336820006370544
1718311118198407400,29.596407470703124,0.053222473710775375,-0.7113860845565796,0.3492603898048401
1718311118248179500,29.646179443359376,0.13368794322013855,0.0020754944998770952,0.10975296050310135
1718311118297951200,29.695951171875,0.5173012614250183,-0.429732084274292,-0.4991227090358734
1718311118347724500,29.745724609375,0.5331172347068787,0.1186591386795044,-1.6897207498550415
1718311118397496300,29.795496337890626,0.8054526448249817,-0.1332533359527588,-2.4796457290649414
1718311118447268400,29.845268310546874,0.6093881130218506,-0.04044436290860176,-2.994774341583252
1718311118497041200,29.895041259765627,0.8920130729675293,0.3631354868412018,-2.7227540016174316
1718311118546813200,29.944813232421875,0.3588891327381134,-1.4799162149429321,-1.752226710319519
1718311118596585200,29.994585205078124,0.6446449756622314,-1.8399475812911987,-2.9961657524108887
1718311118646358300,30.044358154296877,0.8151566386222839,-2.885427236557007,-2.1037559509277344
1718311118696130300,30.09413037109375,0.9170286655426025,-0.9243755340576172,-0.7715357542037964
1718311118745902600,30.143902587890626,-0.04761582985520363,-0.28948065638542175,-0.5487419962882996
1718311118795675400,30.19367529296875,-0.37677034735679626,-0.46805906295776367,-0.07692189514636993
1718311118845447400,30.243447509765623,-0.2713201642036438,-0.2017977237701416,0.2667877674102783
1718311118895220500,30.293220458984376,-0.6049580574035645,0.3718757927417755,0.5678592324256897
1718311118944992500,30.342992431640624,-0.6409478187561035,0.6592102646827698,1.063757300376892
1718311118994764500,30.3927646484375,-0.7394130825996399,1.3874861001968384,1.5915164947509766
1718311119044537600,30.44253759765625,-1.0174353122711182,1.4863399267196655,2.5519185066223145
1718311119094309600,30.4923095703125,-0.6984958052635193,1.1075794696807861,1.7325832843780518
1718311119144081700,30.54208154296875,-0.31118980050086975,0.4388878643512726,1.3947480916976929
1718311119193854500,30.5918544921875,-0.5198458433151245,2.075838804244995,1.6314221620559692
1718311119243626500,30.64162646484375,-0.290985107421875,1.352343201637268,1.28871750831604
1718311119293398500,30.6913984375,-0.027732709422707558,-0.01879708282649517,1.0522208213806152
1718311119343171600,30.741171630859377,-0.5321405529975891,-0.12654410302639008,1.1783939599990845
1718311119392943600,30.790943603515625,-0.41870781779289246,1.1664891242980957,0.8969582319259644
1718311119442715600,30.840715576171874,-0.09858275949954987,0.7932180166244507,0.5700860023498535
1718311119492488700,30.89048876953125,-0.010268489830195904,-0.18942871689796448,0.19055910408496857
1718311119542260700,30.9402607421875,-0.055727750062942505,0.8193026781082153,0.08018243312835693
1718311119592032800,30.99003271484375,0.09381312131881714,0.043947555124759674,-0.1198175698518753
1718311119641805600,31.0398056640625,0.17179542779922485,-0.16518862545490265,-0.07986608147621155
1718311119691577600,31.08957763671875,0.07465405017137527,-0.39552733302116394,0.2985505163669586
1718311119741350700,31.1393505859375,0.1560073345899582,-0.5376521348953247,0.06653076410293579
1718311119791122700,31.189122802734374,0.3197570741176605,-0.6806135177612305,-0.8768377304077148
1718311119840894500,31.23889453125,0.4040832817554474,-0.23113203048706055,-1.9590493440628052
1718311119890667800,31.288667724609375,0.9801565408706665,-0.8046556115150452,-3.019261121749878
1718311119940439600,31.338439453125,1.5802819728851318,0.6405196785926819,-2.994011163711548
1718311119990211600,31.388211669921876,0.5275257229804993,-0.3771595060825348,-1.4557360410690308
1718311120039984400,31.437984375,-0.2647343575954437,-1.0746759176254272,-1.9136043787002563
1718311120089756400,31.48775634765625,0.0587216354906559,-2.532665252685547,-2.6010425090789795
1718311120139529500,31.537529541015626,-0.041179507970809937,-2.854849100112915,-1.5331549644470215
1718311120189301500,31.587301513671875,0.48736512660980225,-1.80092191696167,-0.5652126669883728
1718311120239073500,31.637073486328124,0.02406870573759079,0.3083377778530121,-0.1935712695121765
1718311120288846600,31.6868466796875,-0.47894662618637085,0.14213213324546814,0.8812888860702515
1718311120338618600,31.73661865234375,-0.5467694401741028,0.6850768327713013,1.3175227642059326
1718311120388390700,31.786390625,-0.7437169551849365,1.8158974647521973,1.6000072956085205
1718311120438163500,31.83616357421875,-1.1661243438720703,2.401364803314209,1.8678045272827148
1718311120487935500,31.885935546875,-0.7469857931137085,1.7487521171569824,1.8480266332626343
1718311120537707500,31.93570751953125,-0.15438534319400787,1.11748206615448,1.8228285312652588
1718311120587480600,31.98548046875,0.030819358304142952,0.037753064185380936,1.6844505071640015
1718311120637252600,32.03525268554687,-0.6705630421638489,0.6039865016937256,1.898958683013916
1718311120687025700,32.08502563476563,-0.7676305770874023,1.5228124856948853,1.5297980308532715
1718311120736797400,32.13479736328125,-0.43744057416915894,0.9984149932861328,1.1000738143920898
1718311120786569500,32.184569580078126,-0.1923634260892868,-0.25399330258369446,0.9069764614105225
1718311120836342300,32.23434228515625,-0.014234520494937897,1.1442921161651611,0.8009655475616455
1718311120886114300,32.2841142578125,0.08440683782100677,-0.1223846971988678,0.50645911693573
1718311120935887400,32.333887451171876,0.2252216786146164,-0.2569839656352997,0.2074614316225052
1718311120985659400,32.38365942382813,0.11380966007709503,-0.4213530719280243,-0.19915877282619476
1718311121035431400,32.43343139648437,0.06688570231199265,-0.6262591481208801,-0.7638571858406067
1718311121085204500,32.48320458984375,0.5484841465950012,-0.8734865784645081,-1.8508200645446777
1718311121134976500,32.5329765625,1.0307062864303589,-1.219714641571045,-3.6603715419769287
1718311121184749300,32.58274926757812,1.5944548845291138,-0.08379899710416794,-4.106939315795898
1718311121234521300,32.632521240234375,2.071568012237549,-0.1672128587961197,-2.7847230434417725
1718311121284294400,32.68229443359375,-0.19527418911457062,0.07736380398273468,-1.4139087200164795
1718311121334066400,32.73206640625,-0.18320032954216003,-1.5638072490692139,-1.5713083744049072
1718311121383838500,32.78183837890625,-0.39403390884399414,-1.670871615409851,-0.9796972274780273
1718311121433611500,32.83161157226562,0.496260404586792,-4.1105475425720215,-0.8929699063301086
1718311121483383300,32.88138330078125,-0.19464363157749176,1.3356596231460571,0.7311108708381653
1718311121533156400,32.93115625,-1.093357801437378,0.9163811206817627,0.6918808221817017
1718311121582928400,32.980928466796875,-0.6864590644836426,1.593651294708252,2.11936616897583
1718311121632700400,33.03070043945313,-0.9313663244247437,1.2288254499435425,1.5347954034805298
1718311121682473500,33.08047338867188,-1.0947164297103882,2.7849557399749756,2.5413384437561035
1718311121732245800,33.13024584960937,-0.037846751511096954,1.8079298734664917,1.940274715423584
1718311121782018600,33.1800185546875,0.09388114511966705,-1.4221433401107788,1.5776649713516235
1718311121831790600,33.22979052734375,-1.017371654510498,0.7093762755393982,2.383716583251953
1718311121881563600,33.27956372070312,-0.9083369374275208,1.5027117729187012,1.7448840141296387
1718311121931335700,33.329335693359376,-0.3735344707965851,0.8129193186759949,1.2041373252868652
1718311121981108700,33.379108642578124,0.05074193701148033,-0.8292396068572998,0.7848354578018188
1718311122030880500,33.42888061523438,-0.1024676263332367,0.3990612030029297,0.5678899884223938
1718311122080653600,33.478653564453126,0.22106820344924927,-0.04649613797664642,0.30182337760925293
1718311122130425300,33.52842529296875,0.2154804766178131,-0.8417728543281555,0.061725717037916183
1718311122180197400,33.578197265625,0.3816643953323364,-0.8068668246269226,-0.9394697546958923
1718311122229970400,33.62797045898437,0.5889906287193298,-1.759651780128479,-2.7476508617401123
1718311122279742500,33.677742431640624,1.57161545753479,-0.4551074504852295,-4.113180637359619
1718311122329515500,33.727515625,2.4029688835144043,0.015114566311240196,-3.8692145347595215
1718311122379287600,33.77728759765625,1.0375791788101196,0.4136882722377777,-1.685671091079712
1718311122429060400,33.827060302734374,-0.22367827594280243,-1.0619193315505981,-2.221332311630249
1718311122478832400,33.876832275390626,-0.056857336312532425,-1.741557002067566,-1.3483107089996338
1718311122528605400,33.92660546875,0.16269129514694214,-2.7452657222747803,-1.8670079708099365
1718311122578377500,33.97637744140625,-0.4302299916744232,-0.33363357186317444,0.8485065698623657
1718311122628150500,34.02615063476563,-0.8261350989341736,1.4830304384231567,1.3752633333206177
1718311122677922600,34.07592260742187,-0.9915207028388977,2.616636276245117,2.507483959197998
1718311122727695600,34.12569555664062,-0.4358535408973694,1.0144323110580444,1.922013521194458
1718311122777467600,34.175467529296874,-1.0895577669143677,2.331214427947998,2.985034942626953
1718311122827240700,34.22524072265625,-0.1674419790506363,1.184383749961853,2.343898296356201
1718311122877012700,34.2750126953125,-0.821248471736908,-0.6960352659225464,1.6225570440292358
1718311122926785800,34.324785888671876,-0.7502573132514954,1.7628071308135986,1.765612006187439
1718311122976557600,34.3745576171875,-0.48182472586631775,2.0762686729431152,1.1355749368667603
1718311123026330600,34.42433056640625,0.025159738957881927,-0.7320036888122559,0.854775071144104
1718311123076102400,34.47410229492188,0.037678398191928864,0.7885974645614624,0.40748563408851624
1718311123125875700,34.52387573242188,0.2903490960597992,-0.24525459110736847,0.025674864649772644
1718311123175647500,34.5736474609375,0.46641817688941956,-0.963570773601532,-0.7091625332832336
1718311123225420800,34.6234208984375,0.31482428312301636,-0.7415345311164856,-1.1266393661499023
1718311123275192600,34.673192626953124,0.6411727070808411,-1.6613730192184448,-2.842501163482666
1718311123324965600,34.72296557617187,1.1785017251968384,-0.6074779033660889,-3.6454670429229736
1718311123374737400,34.7727373046875,1.400710105895996,1.5261502265930176,-3.330078125
1718311123424510700,34.8225107421875,-0.20518118143081665,-2.208625316619873,-1.8559428453445435
1718311123474282500,34.87228247070313,-0.03623981028795242,-2.185612916946411,-2.6699299812316895
1718311123524055800,34.92205590820313,-0.019355185329914093,-2.6703505516052246,-2.114467144012451
1718311123573827600,34.97182763671875,0.0936439111828804,-3.392987012863159,-0.4512522220611572
1718311123623600600,35.0216005859375,-0.640332043170929,1.2396329641342163,0.693694531917572
1718311123673372400,35.07137231445312,-1.2112128734588623,1.2936636209487915,1.384975552558899
1718311123723145200,35.12114526367188,-0.47736215591430664,1.8022079467773438,2.42417049407959
1718311123772918300,35.170918212890626,-1.070116400718689,1.1628159284591675,1.8762953281402588
1718311123822690300,35.22069018554687,-0.9338167905807495,2.4109702110290527,2.8983349800109863
1718311123872463000,35.27046313476563,-0.24127836525440216,-0.46857747435569763,2.2570438385009766
1718311123922235100,35.32023510742187,-0.8787997364997864,-0.17251963913440704,2.437731981277466
1718311123972008200,35.37000830078125,-0.9632264971733093,1.9186562299728394,1.1546636819839478
1718311124021780200,35.4197802734375,-0.465755432844162,0.9420763254165649,1.247829794883728
1718311124071553300,35.46955322265625,-0.2491445392370224,1.5867981910705566,0.6148512363433838
1718311124121325300,35.5193251953125,-0.03452463820576668,0.2281339466571808,0.6873842477798462
1718311124171098000,35.56909814453125,0.0026094343047589064,-0.07230221480131149,0.3807491660118103
1718311124220871200,35.61887109375,0.2604359984397888,-0.14897586405277252,-0.2834787666797638
1718311124270643200,35.66864331054688,0.3426823914051056,-0.9366057515144348,-1.097156047821045
1718311124320416300,35.718416259765625,0.5758745670318604,-0.7590503096580505,-2.4930007457733154
1718311124370188300,35.76818823242188,1.291022777557373,-0.9912047386169434,-3.6163840293884277
1718311124419961000,35.81796118164063,2.0753979682922363,-0.5806739926338196,-2.9777185916900635
1718311124469733000,35.86773315429687,0.6888495683670044,0.6641025543212891,-2.142892837524414
1718311124519506200,35.91750610351563,-0.39386463165283203,-2.230306386947632,-2.551011562347412
1718311124569279200,35.967279296875,0.8014715909957886,-3.20222544670105,-3.3364551067352295
1718311124619051300,36.01705126953125,-0.09745053201913834,-1.8615721464157104,-0.5187397599220276
1718311124668824300,36.06682421875,-0.47074174880981445,-0.0018519582226872444,0.5441908240318298
1718311124718596000,36.11659619140625,-0.4156416356563568,0.19957159459590912,0.32820144295692444
1718311124768369200,36.166369140625,-0.5099162459373474,1.2165818214416504,1.8091157674789429
1718311124818142200,36.21614208984375,-0.7517111301422119,2.3293614387512207,1.81758713722229
1718311124867914200,36.265914306640624,-1.218685269355774,2.3510217666625977,2.7574715614318848
1718311124917687300,36.31568725585937,-0.6465885043144226,2.140105962753296,2.5678110122680664
1718311124967460000,36.36546020507812,0.32416585087776184,-0.8106518387794495,1.5526703596115112
1718311125017232100,36.415232177734374,-0.9575580954551697,-0.26532623171806335,2.221282482147217
1718311125067005200,36.46500512695312,-1.0025665760040283,1.4507629871368408,1.6427466869354248
1718311125116777200,36.514777099609375,-0.5176223516464233,1.8055248260498047,1.3894108533859253
1718311125166550300,36.56455029296875,0.04178154468536377,-0.6929435133934021,0.8005094528198242
1718311125216323000,36.61432299804687,0.06157108023762703,1.0889854431152344,0.6655803322792053
1718311125266095000,36.66409521484375,0.10922669619321823,0.007320130243897438,0.3056870698928833
1718311125315868200,36.7138681640625,0.1534164845943451,-0.04579324647784233,-0.17033956944942474
1718311125365641200,36.76364111328125,0.4019835591316223,0.22362501919269562,-0.3325672745704651
1718311125415413200,36.81341333007813,0.542544424533844,-0.7477404475212097,-1.2689151763916016
1718311125465186000,36.86318603515625,0.5442426204681396,-0.6945729851722717,-2.156527042388916
1718311125514959000,36.912958984375,1.4617449045181274,-0.5564490556716919,-3.6463358402252197
1718311125564731100,36.96273120117188,1.83942711353302,0.09947482496500015,-4.083375453948975
1718311125614504200,37.012504150390626,0.12213914841413498,1.191046118736267,-1.2193423509597778
1718311125664277000,37.062277099609375,-0.8679596185684204,-1.4039382934570312,-2.935790777206421
1718311125714049000,37.11204907226563,0.1237112283706665,-3.1071553230285645,-1.346660852432251
1718311125763823000,37.16182299804687,-0.18617790937423706,-1.3015921115875244,-0.9142216444015503
1718311125813596000,37.21159594726562,1.3756211996078491,-2.9512500762939453,-2.4012820720672607
1718311125863368000,37.261367919921874,-0.5525925755500793,0.41795921325683594,-0.07183359563350677
1718311125913141000,37.31114111328125,-0.519390344619751,0.13011755049228668,0.8601683378219604
1718311125962914000,37.3609140625,-0.3066897988319397,-0.20890194177627563,1.1252139806747437
1718311126012686000,37.41068603515625,-1.3420848846435547,0.8395540118217468,1.8182438611984253
1718311126062459000,37.460458984375,-0.9820374846458435,1.8932340145111084,2.1172916889190674
1718311126112232000,37.51023193359375,-1.0638725757598877,2.184251070022583,2.422893524169922
1718311126162005000,37.5600048828125,-0.499951034784317,0.6494759917259216,2.1154825687408447
1718311126211777000,37.609777099609374,-0.18355244398117065,-0.5916382074356079,1.7313789129257202
1718311126261549800,37.6595498046875,-0.5651420950889587,0.964461624622345,2.1565937995910645
1718311126311323000,37.70932299804687,-0.32850316166877747,1.835099697113037,1.6268129348754883
1718311126361095000,37.759094970703124,-0.7564045786857605,0.9953583478927612,1.2040437459945679
1718311126410868000,37.80886791992187,-0.007524911314249039,-0.6710933446884155,0.5664818286895752
1718311126460641000,37.85864111328125,-0.23629608750343323,2.810579299926758,0.6075884699821472
1718311126510413800,37.90841381835938,0.10690497606992722,-0.8471386432647705,0.46118563413619995
1718311126560185900,37.95818579101562,-0.11868452280759811,0.6330268383026123,0.36562299728393555
1718311126609959000,38.007958984375,0.22555144131183624,-0.21454563736915588,-0.444428950548172
1718311126659732200,38.05773217773437,0.15810801088809967,-0.3764718770980835,-0.736568033695221
1718311126709505000,38.10750512695312,0.5782694816589355,-0.29979807138442993,-1.8249684572219849
1718311126759277000,38.157277099609374,0.8235601782798767,-0.6514374017715454,-2.414436101913452
1718311126809050000,38.20705004882812,1.1737194061279297,-0.4912029802799225,-3.1140012741088867
1718311126858823200,38.2568232421875,1.2644782066345215,0.553369402885437,-2.984652042388916
1718311126908596000,38.30659594726563,0.04148818925023079,-1.3594255447387695,-1.67234468460083
1718311126958368000,38.35636791992187,0.19331225752830505,-1.9375782012939453,-2.8098039627075195
1718311127008141000,38.40614111328125,0.47163426876068115,-1.9344890117645264,-1.983382225036621
1718311127057914000,38.4559140625,1.0796581506729126,-1.0550837516784668,-2.896162986755371
1718311127107687000,38.50568701171875,-0.09950937330722809,-1.2957961559295654,-0.7188428640365601
1718311127157459000,38.555458984375,-0.4662744700908661,0.5326412320137024,0.9078236222267151
1718311127207232000,38.60523193359375,-1.0498449802398682,0.02216334640979767,1.6261954307556152
1718311127257005000,38.65500512695313,-1.0406872034072876,0.6626805067062378,1.9155311584472656
1718311127306777900,38.70477783203125,-1.5868964195251465,2.4926559925079346,2.499070167541504
1718311127356550000,38.7545498046875,-1.0494565963745117,2.4799387454986572,2.9182868003845215
1718311127406323000,38.80432299804688,-0.3306286334991455,0.801510214805603,2.218709707260132
1718311127456096300,38.85409619140625,-0.26093390583992004,-1.2668591737747192,1.7284107208251953
1718311127505869000,38.903869140625,-1.1630433797836304,1.943544864654541,2.265336036682129
1718311127555641000,38.95364111328125,-0.5947611927986145,2.2630200386047363,1.6517858505249023
1718311127605414100,39.0034140625,-0.19546392560005188,1.0043693780899048,1.517229437828064
1718311127655187200,39.05318725585938,0.23996485769748688,0.33370259404182434,1.1007293462753296
1718311127704960000,39.1029599609375,0.15762469172477722,0.4108169674873352,0.4822978079319
1718311127754733000,39.152733154296875,0.2376527637243271,-0.11275210976600647,-0.22858783602714539
1718311127804505000,39.20250512695313,0.5120280981063843,0.43501198291778564,-1.0919203758239746
1718311127854278100,39.252278076171876,0.6000975966453552,-0.4731091260910034,-1.9349820613861084
1718311127904051000,39.302051025390625,0.7395957112312317,0.24942317605018616,-2.5625600814819336
1718311127953824000,39.351823974609374,0.6768280863761902,-0.6755578517913818,-3.3441972732543945
1718311128003597000,39.40159716796875,0.3192455470561981,0.8336511850357056,-2.6043102741241455
1718311128053370000,39.4513701171875,-0.4742591381072998,-1.5034455060958862,-2.0791587829589844
1718311128103142100,39.50114208984375,0.20886114239692688,-2.474956512451172,-3.114783525466919
1718311128152915000,39.5509150390625,-0.1828598976135254,-1.5406030416488647,-1.8452547788619995
1718311128202688300,39.600688232421874,0.9705509543418884,-1.5928025245666504,-3.630446672439575
1718311128252461300,39.65046142578125,-0.3616456091403961,-1.1287015676498413,-0.3438642621040344
1718311128302234000,39.70023413085938,-0.6325559616088867,-1.2183597087860107,0.1389559656381607
1718311128352006100,39.750006103515624,-0.4742937982082367,0.4160577952861786,1.4240121841430664
1718311128401779200,39.799779296875,-1.2526668310165405,1.5732189416885376,1.9265493154525757
1718311128451552300,39.84955224609375,-1.2719082832336426,3.0742743015289307,3.0490424633026123
1718311128501325000,39.89932495117188,-0.3608006238937378,2.3573036193847656,2.800281524658203
1718311128551098000,39.94909814453125,-0.5310745239257812,-0.4549705982208252,2.7081615924835205
1718311128600871200,39.99887109375,-0.5648417472839355,-0.9241502285003662,2.3828747272491455
1718311128650643200,40.04864331054687,-0.9492200613021851,2.1335036754608154,2.466754674911499
1718311128700416000,40.098416015625,-0.7608698010444641,2.1407737731933594,1.626358985900879
1718311128750189300,40.14818920898438,-0.014859840273857117,-0.1619216799736023,0.6765041351318359
1718311128799962400,40.19796240234375,-0.14080019295215607,0.9642955660820007,0.6735185980796814
1718311128849735200,40.247735107421875,0.13200527429580688,0.1982155591249466,0.4321165978908539
1718311128899508200,40.29750830078125,0.2760395109653473,-0.2842959761619568,-0.22700604796409607
1718311128949281300,40.34728125,0.30713096261024475,-0.567699670791626,-0.8988087773323059
1718311128999053300,40.39705322265625,0.172410249710083,-0.423674613237381,-1.9312870502471924
1718311129048826000,40.446826171875,0.5490016937255859,-0.7750076055526733,-3.492581367492676
1718311129098599400,40.496599365234374,1.0714092254638672,-0.20357918739318848,-3.8849313259124756
1718311129148372500,40.54637255859375,1.4576740264892578,-0.2803066372871399,-3.4777681827545166
1718311129198145300,40.59614526367187,-0.1063874289393425,-2.237354040145874,-2.8518550395965576
1718311129247918300,40.64591845703125,0.49576205015182495,-1.9097189903259277,-2.8469929695129395
1718311129297691400,40.69569140625,0.5346471071243286,-1.1935118436813354,-2.146634101867676
1718311129347464400,40.74546435546875,0.03891463205218315,-2.931182622909546,-0.9330368041992188
1718311129397236200,40.795236328125,-0.2654271125793457,0.6265429854393005,0.6944292783737183
1718311129447009300,40.84500927734375,-0.8941165208816528,0.7747174501419067,0.9393886923789978
1718311129496782300,40.8947822265625,-0.9803785085678101,1.5073031187057495,2.405043840408325
1718311129546555400,40.944555419921876,-1.311338186264038,2.1725990772247314,2.647806167602539
1718311129596328200,40.994328125,-0.9973392486572266,3.0101678371429443,3.261479377746582
1718311129646101200,41.044101318359374,-0.16678830981254578,1.2722253799438477,2.885490894317627
1718311129695874300,41.09387426757812,-0.08461794257164001,-1.9396644830703735,2.293375015258789
1718311129745646600,41.143646484375,-0.7595730423927307,1.148213267326355,2.4080464839935303
1718311129795419400,41.19341943359375,-0.5665737986564636,1.7679047584533691,1.5774627923965454
1718311129845191400,41.24319140625,-0.32605332136154175,1.1618707180023193,1.3421614170074463
1718311129894964500,41.29296459960938,-0.23587334156036377,-0.5061874985694885,0.8317047953605652
1718311129944737500,41.342737548828126,-0.16225086152553558,0.5070213079452515,0.8422366976737976
1718311129994510300,41.39251025390625,0.3069932460784912,-0.24445535242557526,0.05381959676742554
1718311130044283400,41.44228344726562,0.22693683207035065,-0.3479660451412201,0.03351321816444397
1718311130094056400,41.49205639648437,0.26489800214767456,-0.4594976007938385,-0.6091247200965881
1718311130143829200,41.54182934570313,0.40026962757110596,-0.3524179756641388,-1.4624983072280884
1718311130193602600,41.5916025390625,0.609790027141571,-1.2500395774841309,-2.724961757659912
1718311130243375600,41.64137573242188,1.3215152025222778,-1.2271337509155273,-4.372498035430908
1718311130293148400,41.6911484375,1.8323376178741455,0.08142659068107605,-3.3619065284729004
1718311130342921500,41.74092138671875,0.43890851736068726,-2.4535269737243652,-2.64151930809021
1718311130392693500,41.79069360351563,0.6104039549827576,-1.3957760334014893,-3.2866272926330566
1718311130442466600,41.84046655273438,0.47676706314086914,-2.0627009868621826,-2.608309745788574
1718311130492239400,41.8902392578125,-0.10056666284799576,-1.6130237579345703,-0.9269389510154724
1718311130542012400,41.940012451171874,-0.13053709268569946,0.27496761083602905,0.42723679542541504
1718311130591785500,41.98978540039062,-0.6877455711364746,0.4630833566188812,0.916312575340271
1718311130641558500,42.03955859375,-0.6667472124099731,1.1919060945510864,1.4967832565307617
1718311130691331300,42.08933129882813,-1.1104966402053833,2.0361599922180176,2.269815444946289
1718311130741104400,42.1391044921875,-1.286155104637146,2.6679089069366455,3.056867837905884
1718311130790877400,42.18887744140625,-0.3807571828365326,2.3958699703216553,3.1588923931121826
1718311130840650500,42.238650390625,-0.5348837375640869,-0.8783904314041138,2.4408211708068848
1718311130890423600,42.288423583984375,-0.7435607314109802,-0.7759262919425964,2.1783413887023926
1718311130940196600,42.338196533203124,-0.7775170207023621,1.9970264434814453,2.053614377975464
1718311130989969400,42.38796948242187,-0.5740987658500671,2.297825336456299,1.217345118522644
1718311131039742500,42.43774243164062,-0.03110661916434765,-1.2950918674468994,0.6523950099945068
1718311131089515500,42.487515625,-0.3587791323661804,1.3675812482833862,0.8910388946533203
1718311131139288300,42.53728833007813,0.24890869855880737,-0.4159127175807953,0.7246512174606323
1718311131189061400,42.587061279296876,0.12413988262414932,-0.260638028383255,0.2693001925945282
1718311131238833400,42.63683349609375,0.3422524333000183,-0.6427664756774902,-1.1832797527313232
1718311131288606500,42.6866064453125,0.39339885115623474,-0.8202248811721802,-2.9370367527008057
1718311131338379300,42.736379150390626,0.9014148116111755,-0.3346889913082123,-3.9744958877563477
1718311131388152300,42.78615234375,1.5682849884033203,1.2303268909454346,-3.23075270652771
1718311131437925400,42.83592529296875,0.6205763816833496,-0.5536984801292419,-2.023949146270752
1718311131487698400,42.885698486328124,0.09920775890350342,-1.732279896736145,-4.827376365661621
1718311131537471500,42.93547143554687,1.0159934759140015,-2.703300952911377,-3.1456756591796875
1718311131587244500,42.98524462890625,0.4389038383960724,-1.9268410205841064,-2.0523626804351807
1718311131637017600,43.035017578125,0.23592855036258698,-0.7741467356681824,-0.6449673175811768
1718311131686790400,43.08479028320313,-0.703606903553009,-0.7795159816741943,0.46862366795539856
1718311131736563200,43.134563232421876,-0.927974283695221,0.4524182379245758,1.0529963970184326
1718311131786336500,43.18433642578125,-1.0146056413650513,1.5915132761001587,1.9640449285507202
1718311131836109300,43.234109375,-1.4843273162841797,2.342552423477173,2.741586208343506
1718311131885882400,43.28388232421875,-0.9195882678031921,3.2382044792175293,3.3322598934173584
1718311131935655400,43.33365551757812,-0.27460044622421265,1.8548247814178467,3.1129097938537598
1718311131985428200,43.38342822265625,-0.04721391573548317,-1.6479854583740234,2.2152278423309326
1718311132035201300,43.433201171875,-0.7807403802871704,1.564495325088501,2.4903523921966553
1718311132084974300,43.48297436523438,-0.38801634311676025,1.8970166444778442,1.3131303787231445
1718311132134747400,43.532747314453125,-0.08075939863920212,0.5607932209968567,0.9767159819602966
1718311132184520200,43.582520263671874,0.04121408611536026,0.36379772424697876,0.4352443516254425
1718311132234293200,43.63229321289062,0.10981182008981705,0.5129095911979675,0.5318965315818787
1718311132284066300,43.68206640625,0.15994414687156677,-0.5560227632522583,0.5510362386703491
1718311132333839400,43.73183935546875,0.27173012495040894,-0.9573593139648438,-0.3889046907424927
1718311132383612400,43.7816123046875,0.3008153438568115,-1.3848590850830078,-1.6157805919647217
1718311132433385500,43.83138549804688,0.5564306378364563,-1.2952746152877808,-3.3493313789367676
1718311132483158300,43.881158203125,1.2937904596328735,-0.3890470862388611,-4.195268154144287
1718311132532931300,43.930931396484375,1.5901901721954346,0.4805309772491455,-3.5671627521514893
1718311132582704400,43.980704345703124,-0.5742893218994141,-2.093552589416504,-2.4408822059631348
1718311132632477200,44.03047729492187,0.55459064245224,-2.2049312591552734,-4.01387357711792
1718311132682249200,44.080249267578125,0.9670946002006531,-4.057417869567871,-2.2849059104919434
1718311132732022500,44.1300224609375,0.24900536239147186,-0.3459932804107666,-0.9022077918052673
1718311132781795600,44.179795654296875,-0.6527844667434692,0.16770918667316437,0.626984715461731
1718311132831568400,44.229568359375,-0.6318764686584473,0.7934366464614868,1.1030462980270386
1718311132881341400,44.27934155273437,-1.0005722045898438,1.8865094184875488,2.0989830493927
1718311132931114500,44.32911450195313,-1.337804913520813,2.1492490768432617,2.7457756996154785
1718311132980887300,44.37888720703125,-0.44145187735557556,3.3939385414123535,3.1845626831054688
1718311133030660400,44.428660400390626,-0.35409069061279297,0.962992787361145,3.171532392501831
1718311133080433400,44.478433349609375,-0.39734596014022827,-0.7645779848098755,2.37548565864563
1718311133130206500,44.52820654296875,-0.8152141571044922,1.5318021774291992,2.377098321914673
1718311133179979500,44.5779794921875,-0.39891400933265686,2.3727996349334717,1.7888498306274414
1718311133229752600,44.627752685546874,0.29481685161590576,0.1084735319018364,0.9121389389038086
1718311133279525600,44.67752563476562,0.10998861491680145,0.8628440499305725,0.6030550599098206
1718311133329298400,44.72729833984375,0.250411719083786,0.16116374731063843,0.13788887858390808
1718311133379071500,44.77707153320313,0.33443787693977356,-0.29652029275894165,-0.04313831776380539
1718311133428844500,44.826844482421876,0.29215070605278015,-1.1429232358932495,-0.49254897236824036
1718311133478617300,44.876617431640625,0.2681517004966736,-0.8720529675483704,-1.6127688884735107
1718311133528390400,44.926390380859374,0.6286197304725647,-0.30048617720603943,-2.5552568435668945
1718311133578163500,44.97616357421875,0.5519354343414307,0.6301266551017761,-2.899232864379883
1718311133627936500,45.0259365234375,0.8372056484222412,0.656404972076416,-3.1130146980285645
1718311133677709600,45.07570947265625,-0.24827170372009277,-0.9515904188156128,-2.832298994064331
1718311133727482600,45.12548266601563,0.3671073317527771,-3.373436212539673,-4.593576431274414
1718311133777255400,45.17525537109375,0.7529672384262085,-2.6734561920166016,-2.5498898029327393
1718311133827028500,45.225028564453126,0.4023821949958801,-1.3634753227233887,-1.3884940147399902
1718311133876801800,45.2748017578125,-0.0993344858288765,-0.7946814894676208,-0.4304272532463074
1718311133926574600,45.32457470703125,-0.7239073514938354,-0.2635481357574463,0.557840883731842
1718311133976347600,45.37434765625,-0.662348210811615,0.8671877384185791,1.3677127361297607
1718311134026120700,45.42412060546875,-1.076093316078186,1.6650545597076416,2.1841328144073486
1718311134075893800,45.47389379882812,-1.3639029264450073,2.2691051959991455,2.784693956375122
1718311134125666600,45.52366650390625,-0.707939624786377,2.6299326419830322,3.2443771362304688
1718311134175439600,45.57343969726563,-0.5530139207839966,0.874466061592102,3.142869710922241
1718311134225212700,45.623212646484376,-0.21589159965515137,-1.4131375551223755,2.478189468383789
1718311134274985500,45.6729853515625,-0.22530850768089294,1.2670140266418457,2.1747243404388428
1718311134324758500,45.722758544921874,-0.315528005361557,2.1895155906677246,1.243997573852539
1718311134374531600,45.77253149414062,-0.17993223667144775,0.855884850025177,0.8631043434143066
1718311134424304600,45.8223046875,-0.19643060863018036,0.5162976384162903,0.8459391593933105
1718311134474077700,45.87207763671875,0.2096451073884964,0.13151881098747253,0.680458664894104
1718311134523850800,45.92185083007813,0.30938124656677246,-0.04787611588835716,0.3215227425098419
1718311134573623600,45.97162353515625,0.17704692482948303,-0.3593076467514038,-0.03910018131136894
1718311134623396600,46.021396728515626,0.26611652970314026,-0.6104238629341125,-0.4934375286102295
1718311134673169700,46.071169677734375,0.30766308307647705,-0.8769373297691345,-1.3762545585632324
1718311134722942500,46.1209423828125,0.38960057497024536,-0.6914796233177185,-2.611354112625122
1718311134772715300,46.17071533203125,0.9817112684249878,-0.15370745956897736,-3.3804097175598145
1718311134822488300,46.22048828125,1.5427770614624023,0.4020085036754608,-3.704651355743408
1718311134872261400,46.27026147460938,0.2500879466533661,-0.07535727322101593,-2.603713035583496
1718311134922034200,46.3200341796875,0.3861393630504608,-2.0040974617004395,-3.6755528450012207
1718311134971807200,46.36980712890625,0.898657500743866,-1.632286787033081,-3.485719680786133
1718311135021580300,46.419580322265624,0.40666264295578003,-1.9601856470108032,-1.9857263565063477
1718311135071353300,46.46935327148437,-0.16651089489459991,-0.7175211906433105,-0.38517943024635315
1718311135121126400,46.51912646484375,-0.5402914881706238,-0.3008688688278198,0.557616651058197
1718311135170899500,46.5688994140625,-0.9110305905342102,0.36811164021492004,1.051856517791748
1718311135220672300,46.61867236328125,-0.9813559651374817,1.0736353397369385,2.0107297897338867
1718311135270445300,46.6684453125,-1.3622442483901978,1.7333943843841553,2.509551525115967
1718311135320218400,46.71821826171875,-1.5227558612823486,2.858724594116211,3.1696817874908447
1718311135369991400,46.767991455078125,-0.2999131381511688,2.491309881210327,3.2217905521392822
1718311135419764200,46.81776416015625,-0.2001875340938568,-1.3761048316955566,2.248061180114746
1718311135469537300,46.86753735351562,-0.5871315598487854,-0.1454087495803833,2.424525022506714
1718311135519310300,46.91731030273438,-0.17731553316116333,1.746332049369812,1.517756462097168
1718311135569083100,46.96708325195313,-0.2752849757671356,0.7133650183677673,1.3912142515182495
1718311135618856400,47.0168564453125,-0.36964553594589233,0.8240209817886353,1.0303893089294434
1718311135668629500,47.06662939453125,0.2214077264070511,0.5448593497276306,0.6128336787223816
1718311135718402300,47.11640234375,0.2012014538049698,0.43849462270736694,0.655531644821167
1718311135768175900,47.16617578125,0.2406221181154251,-0.11152677237987518,0.2704285979270935
1718311135817949000,47.215948974609375,0.24704429507255554,-0.28766918182373047,0.006496037356555462
1718311135867721700,47.2657216796875,0.33102571964263916,-0.6203018426895142,-0.5616522431373596
1718311135917494800,47.31549487304687,0.3698497712612152,-0.8642807602882385,-1.4916613101959229
1718311135967267800,47.36526782226562,0.4645293951034546,-0.8535528779029846,-2.8064351081848145
1718311136017040600,47.41504052734375,1.0661728382110596,0.371625691652298,-3.8273682594299316
1718311136066813700,47.46481372070313,1.5208499431610107,0.9413968324661255,-3.843539237976074
1718311136116587000,47.5145869140625,-0.3286625146865845,-1.4698193073272705,-2.4820268154144287
1718311136166359800,47.56435986328125,0.057768020778894424,-1.2432096004486084,-3.073646306991577
1718311136216132900,47.6141328125,0.47831612825393677,-2.296189069747925,-2.9608917236328125
1718311136265906000,47.663906005859374,0.6593892574310303,-3.32304310798645,-1.7889009714126587
1718311136315678700,47.7136787109375,0.2743498384952545,-0.350475013256073,-0.6078463196754456
1718311136365451800,47.76345166015625,-0.3839047849178314,-0.8976774215698242,-0.1471037119626999
1718311136415224800,47.81322485351563,-0.4562563896179199,-0.25289642810821533,0.9156111478805542
1718311136464998000,47.86299780273438,-1.0052549839019775,1.478214144706726,1.3746449947357178
1718311136514770700,47.912770751953126,-1.3986760377883911,2.1422579288482666,2.1401000022888184
1718311136564543700,47.962543701171874,-0.8135059475898743,2.1590752601623535,2.6763954162597656
1718311136614316800,48.01231689453125,-0.3373434245586395,2.137742280960083,3.1995155811309814
1718311136664089900,48.06208984375,-0.36278486251831055,2.015899419784546,3.297881603240967
1718311136713863000,48.11186279296875,-0.1461413949728012,-1.5050724744796753,2.460055351257324
1718311136763635700,48.1616357421875,-0.7251613736152649,0.23617897927761078,2.356626510620117
1718311136813408500,48.211408447265626,-0.6433568596839905,2.486339569091797,1.959395170211792
1718311136863180500,48.2611806640625,-0.08018206804990768,0.375288724899292,0.8970580101013184
1718311136912954600,48.31095458984375,-0.17020832002162933,0.3281937539577484,0.8204177618026733
1718311136962726700,48.3607265625,0.25178804993629456,-0.40319275856018066,0.8324193358421326
1718311137012499500,48.41049951171875,0.1810988336801529,-0.17108504474163055,0.5874435901641846
1718311137062272500,48.4602724609375,0.2949344515800476,-0.37634721398353577,-0.07100070267915726
1718311137112045600,48.510045654296874,0.40689998865127563,-0.7981947064399719,-0.9311815500259399
1718311137161818600,48.55981860351562,0.38927826285362244,-1.2693990468978882,-2.021334648132324
1718311137211591400,48.60959130859375,0.582792341709137,-1.136706829071045,-3.382408380508423
1718311137261364500,48.65936450195313,1.2652897834777832,0.31933802366256714,-3.891838550567627
1718311137311137800,48.7091376953125,1.3013945817947388,-1.0358411073684692,-3.3566813468933105
1718311137360910600,48.75891064453125,0.24099358916282654,-1.8825358152389526,-3.322307825088501
1718311137410683600,48.80868359375,1.4504989385604858,-0.7639836668968201,-3.6688835620880127
1718311137460456700,48.858456787109375,0.6260805130004883,-1.999316930770874,-2.7844839096069336
1718311137510229500,48.9082294921875,-0.13516399264335632,-1.05161452293396,-1.2693116664886475
1718311137560002600,48.95800244140625,-0.25050628185272217,-0.515703022480011,0.09158780425786972
1718311137609775600,49.00777563476562,-0.5576472282409668,-0.36065512895584106,0.6242477297782898
1718311137659548400,49.05754833984375,-0.6052230000495911,1.0129884481430054,1.7791774272918701
1718311137709321500,49.10732153320313,-1.2086917161941528,1.89014732837677,2.5913238525390625
1718311137759094500,49.157094482421876,-1.774101972579956,2.7949037551879883,3.299872875213623
1718311137808867300,49.206867431640624,-0.9261137247085571,2.9336211681365967,3.621349573135376
1718311137858640400,49.25664038085937,-0.13856405019760132,0.48704832792282104,2.868894338607788
1718311137908413400,49.30641333007812,-0.10987019538879395,-1.1278150081634521,2.7418692111968994
1718311137958186500,49.3561865234375,-0.5998638868331909,2.277219533920288,2.1311755180358887
1718311138007959300,49.40595922851563,-0.43097421526908875,1.2889362573623657,1.6696151494979858
1718311138057732400,49.455732421875,-0.3271092474460602,0.6219815611839294,1.4449982643127441
1718311138107505700,49.50550561523438,-0.14983008801937103,-0.11197187751531601,0.6788886785507202
1718311138157278500,49.555278564453126,0.2781720757484436,-0.07175961136817932,0.5484170317649841
1718311138207051500,49.605051513671874,0.19913101196289062,-0.08301524072885513,0.4445798099040985
1718311138256824600,49.65482446289062,0.3788732886314392,-0.6850458383560181,-0.4548085331916809
1718311138306597400,49.70459741210937,0.43887776136398315,-0.9242334365844727,-1.4401381015777588
1718311138356370400,49.75437036132813,0.4495076537132263,-1.05941641330719,-2.887756824493408
1718311138406143500,49.8041435546875,1.14841890335083,-0.656703531742096,-4.401098251342773
1718311138455916300,49.853916259765626,1.7510395050048828,1.5879511833190918,-3.8753044605255127
1718311138505689300,49.903689453125,0.28435447812080383,-1.7926064729690552,-2.3416190147399902
1718311138555462400,49.95346240234375,0.13512004911899567,-1.9011892080307007,-4.035608768463135
1718311138605235500,50.0032353515625,1.4162718057632446,-1.8230621814727783,-3.6881086826324463
1718311138655008500,50.05300854492187,0.44211867451667786,-3.0612704753875732,-2.022552728652954
1718311138704781600,50.10278149414062,-0.06667232513427734,-0.8483355641365051,-0.6082450747489929
1718311138754555000,50.15255493164062,-0.8509502410888672,-0.49449166655540466,0.5898423790931702
1718311138804328000,50.20232788085937,-1.0489037036895752,0.34940746426582336,1.409229040145874
1718311138854101000,50.25210107421875,-1.2843183279037476,1.3922998905181885,2.2198357582092285
1718311138903874000,50.3018740234375,-1.7464370727539062,2.445905923843384,2.941124439239502
1718311138953646800,50.351646728515625,-1.2414864301681519,3.370356321334839,3.602560043334961
1718311139003420000,50.401419921875,-0.8281542658805847,1.6829544305801392,3.4862051010131836
1718311139053192000,50.45119189453125,-0.61684650182724,-1.6868293285369873,2.298964262008667
1718311139102965000,50.50096508789063,-0.967180073261261,1.6987656354904175,2.7122128009796143
1718311139152737800,50.55073779296875,-0.42274293303489685,2.7190399169921875,1.597612977027893
1718311139202510800,50.6005107421875,-0.071915403008461,-0.47750869393348694,0.9762568473815918
1718311139252284200,50.6502841796875,-0.32492297887802124,0.7382076978683472,0.9384366273880005
1718311139302057000,50.70005688476562,0.18759089708328247,-0.36182233691215515,0.8625559210777283
1718311139351830000,50.749830078125,0.18533280491828918,-0.42624959349632263,0.06667303293943405
1718311139401603000,50.79960302734375,0.4726191759109497,-0.9970890879631042,-0.7361512184143066
1718311139451375900,50.8493759765625,0.7243669033050537,-1.8269176483154297,-2.426055669784546
1718311139501149000,50.89914892578125,1.2570077180862427,-1.985133409500122,-5.109551906585693
1718311139550922000,50.948921875,3.5807535648345947,0.26398319005966187,-4.405428409576416
1718311139600694800,50.99869482421875,1.645412564277649,0.0831233561038971,-2.072944164276123
1718311139650467800,51.0484677734375,0.5366078019142151,-1.6609251499176025,-4.984506607055664
1718311139700241000,51.09824096679687,1.2268989086151123,-2.8106746673583984,-3.1884732246398926
1718311139750014000,51.14801391601563,0.8430687189102173,-1.570198893547058,-1.8638191223144531
1718311139799787000,51.197787109375,-0.11594707518815994,-0.7627434134483337,-0.5044347643852234
1718311139849560000,51.24756005859375,-0.9580544233322144,0.13936418294906616,0.6628095507621765
1718311139899333000,51.2973330078125,-1.293683648109436,1.3138010501861572,1.9695578813552856
1718311139949106000,51.34710595703125,-1.3380138874053955,1.6032426357269287,3.1454553604125977
1718311139998879000,51.39687890625,-1.6074761152267456,2.2989439964294434,3.9541728496551514
1718311140048651000,51.44665112304688,-1.4866929054260254,2.6519856452941895,4.237118721008301
1718311140098424000,51.496424072265626,-2.0792086124420166,-0.9323610663414001,3.544891357421875
1718311140148196900,51.54619677734375,-1.0289970636367798,-0.24433141946792603,2.830122470855713
1718311140197970000,51.59596997070312,-0.5895594358444214,2.8720555305480957,1.2860817909240723
1718311140247743000,51.64574291992187,-0.4287877678871155,3.093888521194458,1.377489447593689
1718311140297515800,51.69551586914063,-0.04922796040773392,-1.6143414974212646,0.4947618246078491
1718311140347289000,51.7452890625,-0.5212306976318359,1.7853344678878784,0.9051523208618164
1718311140397062100,51.79506225585938,0.2603161334991455,-0.28683042526245117,0.08592598140239716
1718311140446835000,51.8448349609375,0.4103051722049713,-0.6303087472915649,-0.6176026463508606
1718311140496608000,51.89460791015625,0.5442643165588379,-1.6034153699874878,-1.7434570789337158
1718311140546381000,51.944381103515624,0.6894162893295288,-1.5833163261413574,-3.2812137603759766
1718311140596153900,51.99415380859375,1.5854337215423584,-0.6482537984848022,-5.371870994567871
1718311140645927000,52.04392700195312,2.7208316326141357,-0.42483359575271606,-3.988677501678467
1718311140695700000,52.09369995117188,0.2914111614227295,-2.0268003940582275,-4.285798072814941
1718311140745473000,52.14347314453125,1.0577136278152466,-1.73291015625,-3.1716699600219727
1718311140795245000,52.1932451171875,0.772142767906189,-0.9545478820800781,-2.6967275142669678
1718311140845017900,52.24301782226563,-0.1148829311132431,-2.6746554374694824,-0.9550930261611938
1718311140894791000,52.292791015625,-0.7928463816642761,0.10068356245756149,1.1374868154525757
1718311140944564000,52.34256396484375,-1.1837220191955566,0.8512467741966248,1.6507407426834106
1718311140994336800,52.392336669921875,-2.0688669681549072,2.379152774810791,3.201693296432495
1718311141044109800,52.44210986328125,-1.454077124595642,3.2665719985961914,3.7874796390533447
1718311141093883000,52.4918828125,-0.8624117970466614,2.9373319149017334,4.024172782897949
1718311141143655700,52.54165576171875,-1.0684293508529663,-0.7638067007064819,3.131073474884033
1718311141193428700,52.5914287109375,-0.6252504587173462,0.10883656144142151,2.691563367843628
1718311141243201800,52.64120190429688,-0.8276616334915161,2.051413059234619,2.0323524475097656
1718311141292974600,52.690974609375,-0.6275513768196106,2.729661703109741,1.4421730041503906
1718311141342748000,52.740747802734376,0.09544073790311813,-1.6271485090255737,0.5390867590904236
1718311141392519700,52.79051977539063,-0.3296792507171631,0.8166323304176331,1.0799610614776611
1718311141442293000,52.84029296875,0.1109805479645729,-0.2484305500984192,-0.339804083108902
1718311141492065800,52.890065673828126,0.474425733089447,-0.40772032737731934,-0.7842780947685242
1718311141541838800,52.9398388671875,0.4874724745750427,-1.6127949953079224,-2.106628179550171
1718311141591612000,52.98961181640625,0.43841758370399475,-1.1943663358688354,-3.213207721710205
1718311141641385000,53.039385009765624,1.8566023111343384,-0.25159287452697754,-4.938664436340332
1718311141691157800,53.08915771484375,2.487006187438965,-1.3207720518112183,-3.6199493408203125
1718311141740931000,53.13893115234375,0.1913788765668869,-1.3012713193893433,-4.218928337097168
1718311141790704000,53.1887041015625,1.5583244562149048,-2.020693778991699,-3.8584771156311035
1718311141840477000,53.23847680664063,0.7218701839447021,-1.8703845739364624,-1.8010375499725342
1718311141890250000,53.28825,-0.2782977521419525,-1.3320878744125366,-0.878555953502655
1718311141940023000,53.33802294921875,-0.520270586013794,-0.08165152370929718,0.6144850850105286
1718311141989795800,53.3877958984375,-0.9564095735549927,1.6356980800628662,1.9804531335830688
1718311142039568000,53.43756787109375,-1.5369040966033936,2.427057981491089,3.619764566421509
1718311142089341000,53.4873408203125,-1.4175097942352295,3.173292875289917,4.13458251953125
1718311142139114000,53.537114013671875,-1.267858624458313,2.4700019359588623,4.009401321411133
1718311142188886800,53.58688671875,-1.723490595817566,0.07583970576524734,3.506000518798828
1718311142238660000,53.63666015625,-0.3837200105190277,0.9598789215087891,2.1095826625823975
1718311142288433200,53.68643310546875,-0.36097773909568787,0.04554133117198944,1.6083239316940308
1718311142338206000,53.7362060546875,-0.45286038517951965,5.143564701080322,1.1935501098632812
1718311142387979000,53.78597900390625,0.1692681610584259,-2.787242889404297,0.4012436866760254
1718311142437752000,53.835751953125,-0.44720256328582764,0.7055286765098572,0.6117567420005798
1718311142487524900,53.88552490234375,0.45525288581848145,-0.3515567481517792,0.04293713718652725
1718311142537298000,53.9352978515625,0.35621118545532227,-0.4790557622909546,-0.4386524558067322
1718311142587071000,53.985071044921874,0.6005335450172424,-1.857700228691101,-1.450258731842041
1718311142636844000,54.03484399414062,0.7339344024658203,-1.8802982568740845,-2.910548686981201
1718311142686616000,54.084615966796875,1.644027829170227,-0.7660935521125793,-4.704827785491943
1718311142736388900,54.134388916015624,2.401259422302246,-0.19228672981262207,-3.8592453002929688
1718311142786162000,54.18416186523437,-0.04832945764064789,-0.8033538460731506,-3.646697759628296
1718311142835935000,54.23393505859375,1.0104869604110718,-2.0127649307250977,-4.1395158767700195
1718311142885707800,54.28370776367188,0.9257311224937439,-2.2918992042541504,-3.02400541305542
1718311142935480800,54.333480712890626,0.1547224372625351,-1.3658932447433472,-1.1529502868652344
1718311142985254000,54.38325390625,-0.52483069896698,-0.39482155442237854,0.3626634478569031
1718311143035026700,54.433026611328124,-1.3198918104171753,0.5105285048484802,1.5806934833526611
1718311143084799700,54.4827998046875,-1.5412436723709106,1.9167588949203491,3.1054883003234863
1718311143134572800,54.53257275390625,-1.6423076391220093,2.9207754135131836,3.896594524383545
1718311143184345600,54.582345703125,-1.1692743301391602,3.054431200027466,4.158381462097168
1718311143234119000,54.63211889648438,-1.4722009897232056,-0.32071441411972046,3.480336904525757
1718311143283892000,54.68189208984375,-1.1653985977172852,-0.26509925723075867,2.605208396911621
1718311143333664800,54.731664794921876,-0.7123692035675049,2.1408534049987793,1.807043194770813
1718311143383437800,54.781437744140625,-0.6953786015510559,5.573490142822266,1.6561073064804077
1718311143433209900,54.8312099609375,0.19305109977722168,-3.5543181896209717,0.32972168922424316
1718311143482983000,54.88098291015625,-0.4895893931388855,0.66829913854599,0.7782204747200012
1718311143532756000,54.930755859375,0.1013391837477684,0.15852884948253632,-0.04683004692196846
1718311143582528800,54.98052880859375,0.26137256622314453,-0.2241082340478897,-0.3867902159690857
1718311143632301800,55.0303017578125,0.5379292368888855,-1.4242854118347168,-1.3014620542526245
1718311143682075000,55.08007495117187,0.46414539217948914,-1.4685879945755005,-2.7467763423919678
1718311143731847700,55.12984765625,1.3034417629241943,-1.5181089639663696,-4.484649658203125
1718311143781621200,55.17962133789062,3.250556707382202,-1.7700875997543335,-5.221826553344727
1718311143831394300,55.22939428710937,2.163655996322632,-0.8934955596923828,-3.683379888534546
1718311143881167000,55.2791669921875,0.21141359210014343,-0.784505307674408,-3.5902347564697266
1718311143930940200,55.32894018554688,0.8078117966651917,-1.6865347623825073,-2.3539276123046875
1718311143980713200,55.378713134765626,-0.11752042919397354,-1.337016224861145,-1.4344863891601562
1718311144030486000,55.428486083984374,-0.816658616065979,-1.4261988401412964,0.8249164819717407
1718311144080259000,55.47825903320312,-0.9217144846916199,1.4677075147628784,1.940058946609497
1718311144130032000,55.5280322265625,-1.5508795976638794,1.8114748001098633,2.868568181991577
1718311144179804200,55.57780419921875,-1.348652720451355,1.9914863109588623,3.227339267730713
1718311144229577000,55.62757690429687,-1.165433406829834,2.4268693923950195,3.8111441135406494
1718311144279350000,55.67735009765625,-1.7610548734664917,1.278158187866211,3.871471405029297
1718311144329123000,55.727123046875,-0.510594367980957,-0.4199623465538025,2.5524353981018066
1718311144378896000,55.77689575195313,-1.1890954971313477,2.6021456718444824,2.8815276622772217
1718311144428669200,55.82666918945313,-0.12675006687641144,2.8469841480255127,1.3392999172210693
1718311144478442200,55.87644213867188,0.19947239756584167,-1.2998055219650269,0.8409449458122253
1718311144528215300,55.92621533203125,-0.16833868622779846,1.482108235359192,0.9183630347251892
1718311144577988000,55.975988037109374,0.2982286512851715,-0.6569178104400635,-0.17159344255924225
1718311144627761200,56.02576123046875,0.28611746430397034,-0.45114484429359436,-0.3113659918308258
1718311144677534200,56.0755341796875,0.5594147443771362,-1.5500999689102173,-1.60817289352417
1718311144727307000,56.12530712890625,0.4524677097797394,-1.8735156059265137,-2.852962017059326
1718311144777079600,56.17507958984375,1.4592773914337158,-1.4252045154571533,-5.110896110534668
1718311144826852600,56.2248525390625,3.080772638320923,0.7909597754478455,-4.32558536529541
1718311144876625700,56.274625732421875,0.5794709324836731,-2.947507381439209,-3.40555739402771
1718311144926398500,56.3243984375,0.9748840928077698,-1.4568551778793335,-3.7612266540527344
1718311144976171500,56.37417163085937,1.095015525817871,-1.960612416267395,-3.101926565170288
1718311145025944600,56.42394458007813,-0.026704078540205956,-2.161339044570923,-1.0140411853790283
1718311145075716600,56.47371655273437,-0.6358143091201782,0.20379720628261566,0.6766639947891235
1718311145125489400,56.52348950195312,-1.024153709411621,0.6819688677787781,1.5157493352890015
1718311145175262500,56.57326245117188,-1.225358247756958,2.061375379562378,3.012763023376465
1718311145225035800,56.62303588867187,-1.2228384017944336,3.0190041065216064,3.7715353965759277
1718311145274808600,56.67280859375,-1.3862998485565186,3.3631088733673096,4.141500473022461
1718311145324581600,56.72258154296875,-1.3900705575942993,0.9965276122093201,3.7782540321350098
1718311145374354700,56.772354736328126,-0.4114542305469513,-0.8684157133102417,2.8922481536865234
1718311145424127500,56.82212744140625,-1.262227177619934,3.9632186889648438,2.866786241531372
1718311145473900500,56.87190063476562,-0.2887031137943268,1.3135384321212769,1.3648216724395752
1718311145523673600,56.92167358398437,0.16306249797344208,-0.9485676288604736,-0.04137813672423363
1718311145573446400,56.9714462890625,-0.30304116010665894,-0.8344720005989075,1.3953968286514282
1718311145623219500,57.02121948242188,0.2141973078250885,-0.12561295926570892,-0.07003915309906006
1718311145672992500,57.070992431640626,0.312101274728775,-0.13736534118652344,-0.8757830858230591
1718311145722765600,57.120765625,0.5313727855682373,-1.2219325304031372,-1.7784218788146973
1718311145772538000,57.1705380859375,0.30476707220077515,-0.8150598406791687,-2.679577112197876
1718311145822311200,57.22031127929687,0.7528976202011108,-1.4816410541534424,-3.864347457885742
1718311145872084200,57.27008422851563,1.9702892303466797,-1.5010591745376587,-5.138171672821045
1718311145921857000,57.31985693359375,0.7691906690597534,-1.384731650352478,-3.2983908653259277
1718311145971629000,57.36962915039062,0.6953685879707336,-1.8030203580856323,-4.241375923156738
1718311146021402000,57.41940209960938,0.7899526953697205,-2.143251419067383,-2.732793092727661
1718311146071175200,57.46917504882813,0.1749243438243866,-1.851412057876587,-1.5341143608093262
1718311146120948000,57.518947998046876,-0.7257879972457886,-0.05814237520098686,0.6755285859107971
1718311146170721300,57.56872119140625,-0.6182851791381836,1.3704431056976318,1.951876163482666
1718311146220494300,57.618494384765626,-1.6314345598220825,2.3123316764831543,3.037015199661255
1718311146270267100,57.66826708984375,-1.0995593070983887,3.058161497116089,3.82350492477417
1718311146320040200,57.71804028320312,-1.1693490743637085,2.883211135864258,4.139472484588623
1718311146369813200,57.76781323242187,-1.2297797203063965,0.5562165975570679,3.723416566848755
1718311146419586300,57.81758642578125,-0.3945009410381317,-0.43666839599609375,2.6871533393859863
1718311146469359000,57.86735913085938,-0.7641298770904541,3.331571102142334,2.3119099140167236
1718311146519132200,57.917132080078126,-0.1669851839542389,0.4040740132331848,1.023051142692566
1718311146568905200,57.9669052734375,0.028864547610282898,1.8853880167007446,0.17919929325580597
1718311146618678000,58.016677978515624,0.19525301456451416,-0.6788649559020996,0.455316424369812
1718311146668451300,58.066451416015624,0.23555304110050201,-0.13820436596870422,-0.13597430288791656
1718311146718223000,58.11622314453125,0.4067229628562927,-0.8940003514289856,-0.9765541553497314
1718311146767997000,58.16599682617188,0.456555038690567,-1.4619988203048706,-2.1649680137634277
1718311146817770000,58.21577001953125,0.5464335083961487,-1.1536012887954712,-3.283893585205078
1718311146867543000,58.26554296875,2.008720636367798,-1.5927810668945312,-5.336935997009277
1718311146917315800,58.31531591796875,2.491262435913086,-1.2583043575286865,-4.585876941680908
1718311146967089000,58.3650888671875,-0.21199336647987366,-2.286494493484497,-3.3889403343200684
1718311147016862000,58.414862060546874,0.9473132491111755,-1.5097743272781372,-2.66498064994812
1718311147066635000,58.46463500976562,0.23552356660366058,-1.8822033405303955,-1.845023274421692
1718311147116407800,58.51440771484375,-0.4358067512512207,-1.7318874597549438,0.16687941551208496
1718311147166180900,58.56418090820313,-0.7736921310424805,1.9779764413833618,1.6187448501586914
1718311147215954000,58.613953857421876,-1.2747236490249634,1.6086443662643433,2.540008306503296
1718311147265727000,58.66372705078125,-0.8811715841293335,1.8174028396606445,3.088552713394165
1718311147315498800,58.71349877929688,-0.820739209651947,2.579582452774048,3.869168519973755
1718311147365272000,58.76327197265625,-1.3266184329986572,2.9241230487823486,3.876845598220825
1718311147415045000,58.81304516601563,-0.8292953968048096,-1.0339964628219604,2.672297477722168
1718311147464818000,58.86281787109375,-1.207700252532959,0.9235647320747375,3.179805278778076
1718311147514591000,58.912591064453125,-0.2454988807439804,4.1338348388671875,1.3388454914093018
1718311147564364000,58.96236401367187,0.20751430094242096,-1.1287827491760254,1.1874676942825317
1718311147614136800,59.01213671875,-0.3220021426677704,1.6754910945892334,0.20328722894191742
1718311147663910000,59.06190991210938,0.23375868797302246,-1.2427726984024048,-0.08995192497968674
1718311147713683000,59.11168286132813,0.39771509170532227,-0.9457650184631348,-0.6260112524032593
1718311147763456000,59.1614560546875,0.6197652816772461,-1.8683947324752808,-1.899201512336731
1718311147813229000,59.21122900390625,0.4990306496620178,-1.711661696434021,-3.629366636276245
1718311147863002000,59.261002197265626,2.127042531967163,-1.0796575546264648,-4.774633884429932
1718311147912774100,59.31077416992188,2.60459303855896,-1.5916452407836914,-3.5752055644989014
1718311147962547000,59.360546875,0.5499972105026245,-1.2007137537002563,-3.7101516723632812
1718311148012320000,59.410320068359376,1.1822222471237183,-1.158461332321167,-3.729429006576538
1718311148062093000,59.460093017578124,0.4272153377532959,-2.041796922683716,-1.7728173732757568
1718311148111866000,59.5098662109375,-0.47025877237319946,-1.459577202796936,-0.050568804144859314
1718311148161639000,59.55963891601562,-1.024061918258667,0.02184407413005829,0.8609643578529358
1718311148211412000,59.60941186523438,-1.3889729976654053,1.8681610822677612,2.246967077255249
1718311148261185300,59.65918530273437,-1.5539623498916626,2.6493871212005615,3.1235766410827637
1718311148310958000,59.7089580078125,-1.2228635549545288,3.3632397651672363,3.7858164310455322
1718311148360731100,59.75873120117188,-0.9642562866210938,1.7193678617477417,3.1969261169433594
1718311148410503200,59.80850317382812,-0.6804453134536743,-0.9514638781547546,2.8452961444854736
1718311148460276200,59.85827612304688,-1.2461038827896118,1.7153867483139038,3.204105854034424
1718311148510049000,59.90804907226563,-0.7024181485176086,3.7571918964385986,1.7759642601013184
1718311148559822000,59.957822021484375,0.12395273894071579,-1.7209093570709229,1.093105435371399
1718311148609595100,60.00759521484375,-0.2651974558830261,2.531970739364624,0.46315404772758484
1718311148659368000,60.05736791992187,0.19091784954071045,-0.77076256275177,0.46953046321868896
1718311148709141000,60.10714111328125,0.18809713423252106,-0.4675062298774719,-0.07961013168096542
1718311148758913800,60.15691381835938,0.4553861916065216,-1.3117852210998535,-0.8878383040428162
1718311148808686800,60.20668676757813,0.422731876373291,-1.9244328737258911,-2.3098390102386475
1718311148858459600,60.256459716796876,1.1344910860061646,-1.9656497240066528,-4.3923139572143555
1718311148908231700,60.30623168945313,2.9553005695343018,1.0489990711212158,-4.308315753936768
1718311148958004700,60.35600463867188,1.2642695903778076,-2.8591699600219727,-2.1069655418395996
1718311149007778000,60.40577807617188,0.0861903503537178,-1.0403492450714111,-3.974026679992676
1718311149057550800,60.45555078125,1.3737609386444092,-2.9636971950531006,-3.4317619800567627
1718311149107324000,60.505323974609375,0.06514859199523926,-1.8728439807891846,-1.8869866132736206
1718311149157097000,60.555096923828124,-0.3560933470726013,-0.8276017308235168,-0.2064151167869568
1718311149206869800,60.60486987304687,-0.6345710158348083,-0.03410142660140991,0.7050855159759521
1718311149256642800,60.65464282226562,-0.8553887605667114,1.6417161226272583,2.052511215209961
1718311149306414800,60.704414794921874,-1.0443603992462158,2.7600996494293213,3.0530951023101807
1718311149356188000,60.75418798828125,-1.6241722106933594,2.750715494155884,3.277271032333374
1718311149405960700,60.80396069335937,-1.323845386505127,2.3389627933502197,3.8471460342407227
1718311149455733800,60.85373364257813,-0.6601865887641907,0.042425479739904404,3.11517596244812
1718311149505506800,60.9035068359375,-0.9905814528465271,-0.35636648535728455,3.1200180053710938
1718311149555279600,60.953279541015625,-0.7782267928123474,2.583650827407837,2.3629651069641113
1718311149605052700,61.003052734375,-0.2926338315010071,2.1094448566436768,1.1393924951553345
1718311149654826000,61.052825927734375,-0.09793194383382797,-0.4472222626209259,0.5216802358627319
1718311149704597800,61.10259765625,0.11547499895095825,-0.8777477145195007,0.46543270349502563
1718311149754371000,61.15237109375,0.07302463799715042,-0.07828964293003082,-0.039442479610443115
1718311149804144000,61.20214404296875,0.4262804388999939,-0.9290757179260254,-0.8921729922294617
1718311149853917200,61.251917236328126,0.5911798477172852,-1.6590043306350708,-2.533338785171509
1718311149903690000,61.30168994140625,1.1442843675613403,-1.4526960849761963,-4.429201126098633
1718311149953463000,61.35146313476562,2.4655466079711914,0.8360005617141724,-4.153579235076904
1718311150003236000,61.40123608398437,1.2276127338409424,-2.086791753768921,-2.629061222076416
1718311150053009200,61.45100903320313,0.00551433302462101,-1.4274076223373413,-4.393888473510742
1718311150102781200,61.50078125,1.541897177696228,-2.7545104026794434,-3.2984888553619385
1718311150152554000,61.55055395507812,0.3536616265773773,-3.240260124206543,-1.8077428340911865
1718311150202327000,61.6003271484375,-0.6401753425598145,-0.315746009349823,-0.12288805097341537
1718311150252100000,61.65010009765625,-1.058947205543518,0.7777857184410095,1.3423534631729126
