time,seconds_elapsed,z,y,x
1718311088620892200,0.01889208984375,0.4351293742656708,0.17258615791797638,-0.5538163185119629
1718311088670665200,0.068665283203125,1.4887679815292358,0.8555828332901001,-1.3510706424713135
1718311088720438800,0.118438720703125,2.1428134441375732,2.0579214096069336,0.20514357089996338
1718311088770211600,0.168211669921875,1.4031943082809448,1.1276241540908813,1.8715689182281494
1718311088819984600,0.217984619140625,-1.025367021560669,-0.6096867918968201,3.5447916984558105
1718311088869757700,0.2677578125,-0.5002425909042358,-1.2393083572387695,1.1648927927017212
1718311088919530800,0.31753076171875,0.8511521220207214,0.32967403531074524,0.44934558868408203
1718311088969303600,0.367303466796875,0.8723785877227783,-1.3278659582138062,0.08726885914802551
1718311089019076600,0.41707666015625,0.08803638070821762,-1.3475416898727417,-0.25110945105552673
1718311089068850000,0.466849853515625,-0.14812235534191132,-1.0580555200576782,0.49826812744140625
1718311089118622700,0.516622802734375,-0.12237464636564255,-0.8031159043312073,0.32229867577552795
1718311089168395800,0.566395751953125,0.04460848122835159,-0.2659371495246887,0.12183695286512375
1718311089218168800,0.6161689453125,-0.2384786158800125,-0.40467745065689087,0.06749062985181808
1718311089267941600,0.665941650390625,-0.2649086117744446,-0.10812567174434662,0.30594635009765625
1718311089317715700,0.7157158203125,0.03819398954510689,-0.3264247179031372,0.053583066910505295
1718311089367488500,0.765488525390625,0.2043829709291458,0.06403624266386032,-0.14008893072605133
1718311089417261600,0.815261474609375,0.12169340997934341,0.3926412761211395,-0.6527530550956726
1718311089467034600,0.86503466796875,-0.05693944916129112,0.16203950345516205,-0.7307194471359253
1718311089516807700,0.9148076171875,-0.07001476734876633,0.25559261441230774,-0.7618182897567749
1718311089566580700,0.964580810546875,0.13738103210926056,0.4267803430557251,0.08010122925043106
1718311089616353800,1.014353759765625,0.12197277694940567,0.17587170004844666,-0.07118842750787735
1718311089666126800,1.064126953125,-0.07026457786560059,0.2313368171453476,-0.23611345887184143
1718311089715899400,1.1138994140625,-0.08912188559770584,0.02106320671737194,-0.2517448961734772
1718311089765672400,1.16367236328125,-0.0494501069188118,0.25037842988967896,-0.04475042596459389
1718311089815446300,1.2134462890625,-0.037814222276210785,0.15127474069595337,-0.011313107796013355
1718311089865219600,1.263219482421875,0.18288007378578186,-0.17938414216041565,-0.363129198551178
1718311089914992600,1.31299267578125,-0.05402728170156479,0.20496033132076263,-0.010801514610648155
1718311089964765400,1.362765380859375,0.2265567034482956,-0.12476643174886703,-0.299877792596817
1718311090014538500,1.41253857421875,0.16932883858680725,0.1554737389087677,0.17555157840251923
1718311090064311600,1.4623115234375,0.1235022321343422,-0.3520089089870453,0.1642720252275467
1718311090114084600,1.512084716796875,0.055278170853853226,-0.10070184618234634,0.08175957947969437
1718311090163857400,1.561857421875,0.1066790446639061,-0.5838645100593567,0.5461277961730957
1718311090213630500,1.61163037109375,0.12619175016880035,-0.16160407662391663,0.13299107551574707
1718311090263404300,1.661404296875,0.05781403183937073,-0.2860693037509918,1.0561423301696777
1718311090313177600,1.711177490234375,0.5424888134002686,-0.16777488589286804,0.22567494213581085
1718311090362950700,1.76095068359375,0.45187264680862427,0.2960132956504822,-0.4994684159755707
1718311090412723500,1.810723388671875,-0.20363062620162964,-0.2193043828010559,0.19168634712696075
1718311090462496500,1.86049658203125,0.3742774724960327,0.1657032072544098,-0.1940954327583313
1718311090512269600,1.91026953125,0.43534135818481445,-0.1889970898628235,0.07833448797464371
1718311090562042400,1.96004248046875,-0.021977471187710762,-0.21248163282871246,-0.3133712410926819
1718311090611815400,2.0098154296875,-0.296252965927124,0.6974390149116516,-0.48940885066986084
1718311090661588500,2.05958837890625,-0.26499173045158386,0.04567454382777214,-0.5032690167427063
1718311090711361500,2.109361572265625,0.056830260902643204,0.13201501965522766,-0.36047428846359253
1718311090761135900,2.159135986328125,-0.08499931544065475,0.0511942133307457,0.024475248530507088
1718311090810908700,2.20890869140625,-0.07166220247745514,0.2808593511581421,-0.22688934206962585
1718311090860681700,2.258681640625,0.08164266496896744,0.0262390598654747,-0.37650999426841736
1718311090910454800,2.308454833984375,-0.20897212624549866,0.16994376480579376,-0.13294100761413574
1718311090960227800,2.358227783203125,-0.16618818044662476,-0.03804139047861099,-0.11483843624591827
1718311091010000600,2.408000732421875,0.20434407889842987,0.11191268265247345,-0.15051467716693878
1718311091059773700,2.457773681640625,-0.07772248983383179,-0.0306367389857769,0.04104703664779663
1718311091109546800,2.507546630859375,-0.045876409858465195,-0.07104142010211945,-0.1590983122587204
1718311091159319600,2.557319580078125,-0.07737521827220917,-0.19454525411128998,-0.003698065411299467
1718311091209094000,2.607093994140625,0.01576405018568039,-0.02051006816327572,-0.0976884737610817
1718311091258866700,2.65686669921875,0.0991968885064125,-0.07533709704875946,0.014800251461565495
1718311091308639700,2.7066396484375,0.0925070270895958,-0.05126079171895981,-0.03382933512330055
1718311091358412800,2.756412841796875,-0.01872308738529682,0.025021996349096298,-0.02678847126662731
1718311091408185600,2.806185546875,0.033009082078933716,-0.11754154413938522,-0.005898369010537863
1718311091457958700,2.855958740234375,0.015030615031719208,0.07673845440149307,-0.0561189278960228
1718311091507731700,2.905731689453125,-0.10959067940711975,-0.13942766189575195,-0.006631803698837757
1718311091557504800,2.9555048828125,-0.03329244256019592,0.20792603492736816,-0.21744364500045776
1718311091607277600,3.005277587890625,0.30140405893325806,0.21381108462810516,-0.008745821192860603
1718311091657052000,3.055052001953125,0.36317500472068787,-0.07887856662273407,0.2370881736278534
1718311091706824400,3.104824462890625,0.1606874167919159,-0.1876114457845688,0.31434276700019836
1718311091756597500,3.154597412109375,0.2731468379497528,-0.04650891199707985,0.2693960666656494
1718311091806370600,3.20437060546875,0.17829863727092743,-0.12988317012786865,0.2102174162864685
1718311091856143400,3.254143310546875,0.09189343452453613,0.02406698651611805,0.2894238233566284
1718311091905916400,3.30391650390625,0.12379251420497894,-0.13668514788150787,0.04670571908354759
1718311091955689700,3.353689697265625,-0.04655418545007706,0.22282029688358307,0.07201613485813141
1718311092005462500,3.403462646484375,-0.07936406135559082,-0.08523233979940414,-0.07815977931022644
1718311092055235600,3.453235595703125,-0.07450299710035324,0.21061955392360687,-0.1615542769432068
1718311092105008600,3.503008544921875,-0.2430240958929062,-0.05266374349594116,-0.11871306598186493
1718311092154782500,3.552782470703125,-0.10341160744428635,0.15872466564178467,-0.10169227421283722
1718311092204555500,3.602555419921875,-0.07277140766382217,-0.24671204388141632,-0.04621623083949089
1718311092254328600,3.65232861328125,-0.13680632412433624,0.15772251784801483,-0.21181264519691467
1718311092304101400,3.702101318359375,-0.08543500304222107,-0.0523042157292366,-0.08729629218578339
1718311092353874700,3.751874755859375,-0.18558238446712494,0.07406703382730484,0.013195164501667023
1718311092403647700,3.801647705078125,-0.05299291014671326,-0.04592754319310188,-0.07862769812345505
1718311092453420500,3.851420654296875,-0.14581765234470367,0.1430245339870453,-0.030472688376903534
1718311092503193600,3.901193603515625,-0.050163302570581436,-0.05421982705593109,0.0025952504947781563
1718311092552967400,3.950967529296875,0.024998294189572334,-0.0024865935556590557,-0.08254440873861313
1718311092602740500,4.000740478515625,-0.0797739252448082,0.09182446449995041,-0.1537400335073471
1718311092652513500,4.050513427734375,0.14836549758911133,-0.07432802766561508,-0.10715308785438538
1718311092702286800,4.100286865234375,0.006130330264568329,0.09883496910333633,0.04537547007203102
1718311092752059600,4.1500595703125,-0.010037187486886978,-0.09425406157970428,0.04183027148246765
1718311092801832700,4.199832763671875,0.06574705243110657,0.13162726163864136,0.018428541719913483
1718311092851605800,4.249605712890625,-0.026854783296585083,-0.039508793503046036,-0.03844486176967621
1718311092901378600,4.299378662109375,0.01564207673072815,0.036007802933454514,-0.10080917179584503
1718311092951151900,4.34915185546875,-0.024991635233163834,-0.022903451696038246,-0.10382546484470367
1718311093000925000,4.398925048828125,-0.13130928575992584,0.06102820113301277,0.00024714134633541107
1718311093050698800,4.44869873046875,-0.10700687766075134,-0.0017097494564950466,-0.08895623683929443
1718311093100471800,4.498471923828125,-0.26142174005508423,0.20612174272537231,-0.20353715121746063
1718311093150244600,4.54824462890625,-0.5606516003608704,-0.2695390582084656,0.3252566456794739
1718311093200017700,4.598017578125,-0.8257458209991455,-0.4009775221347809,0.9422857761383057
1718311093249790700,4.647790771484375,-0.093825563788414,0.5549758672714233,0.21159347891807556
1718311093299563500,4.6975634765625,0.03514973074197769,1.1714355945587158,-0.45851537585258484
1718311093349336600,4.747336669921875,-0.03140372782945633,-0.5794566869735718,-0.2774566411972046
1718311093399110000,4.79710986328125,-0.6583909392356873,-1.3205076456069946,-0.595428466796875
1718311093448883000,4.846883056640625,-0.9491671323776245,-0.8982927799224854,-0.2033078521490097
1718311093498655700,4.89665576171875,0.23173442482948303,0.16507896780967712,-0.12387986481189728
1718311093548428800,4.9464287109375,0.15333949029445648,0.25958922505378723,-0.1364915370941162
1718311093598202600,4.99620263671875,0.14207671582698822,0.05993284285068512,0.15283428132534027
1718311093647975700,5.0459755859375,0.1523040533065796,0.1862228661775589,0.015451127663254738
1718311093697748700,5.095748779296875,0.10459724813699722,0.23419758677482605,0.025846777483820915
1718311093747521500,5.145521484375,0.22059814631938934,0.12733878195285797,0.12794597446918488
1718311093797294600,5.195294677734375,-0.023072563111782074,0.17957349121570587,0.16603770852088928
1718311093847067600,5.245067626953125,-0.06497660279273987,0.037687189877033234,0.029753634706139565
1718311093896840400,5.29484033203125,-0.00177899154368788,0.03381495550274849,-0.10951583832502365
1718311093946613500,5.344613525390625,0.03970959410071373,0.17995938658714294,-0.2385806143283844
1718311093996386600,5.394386474609375,-0.06902594119310379,0.20562399923801422,-0.21397434175014496
1718311094046159600,5.44415966796875,0.026496322825551033,-0.0580609068274498,0.02618499845266342
1718311094095932400,5.493932373046875,-0.0210027527064085,0.2780425250530243,-0.04909484088420868
1718311094145705500,5.54370556640625,-0.027346668764948845,0.05481371283531189,-0.10741247981786728
1718311094195478800,5.593478759765625,0.19041308760643005,0.1001172810792923,0.07363879680633545
1718311094245252600,5.643252685546875,0.2685973644256592,-0.019747072830796242,-0.04838351160287857
1718311094295025700,5.693025634765625,0.4163346290588379,0.0010157296201214194,-0.11407384276390076
1718311094344798500,5.742798583984375,0.3444378077983856,0.040470726788043976,0.1453140527009964
1718311094394571500,5.792571533203125,-0.013322196900844574,-0.05019392818212509,-0.010371946729719639
1718311094444344600,5.842344482421875,-0.3376864194869995,0.15994945168495178,-0.47711408138275146
1718311094494117400,5.892117431640625,-0.12246786057949066,0.0536123625934124,-0.16959622502326965
1718311094543890400,5.941890380859375,-0.042085934430360794,0.19007860124111176,-0.2593045234680176
1718311094593663500,5.99166357421875,0.07845113426446915,-0.10289549082517624,-0.0577879324555397
1718311094643436500,6.0414365234375,-0.02670884318649769,0.13133618235588074,-0.3720838129520416
1718311094693210400,6.09121044921875,-0.02636529505252838,0.15167181193828583,-0.174503356218338
1718311094742983400,6.1409833984375,0.28588688373565674,0.2040916085243225,0.14021089673042297
1718311094792756200,6.190756103515625,0.2836000323295593,0.1984180212020874,0.26179298758506775
1718311094842529300,6.240529296875,0.3640357553958893,0.29699626564979553,0.4727472960948944
1718311094892303400,6.290303466796875,0.41453513503074646,0.5147709250450134,0.25559982657432556
1718311094942076400,6.340076416015625,0.24027012288570404,0.4878285229206085,0.051114048808813095
1718311094991849500,6.389849365234375,0.07493282854557037,0.4780922830104828,-0.21780823171138763
1718311095041622500,6.43962255859375,0.11433056741952896,0.3881831467151642,-0.2549651861190796
1718311095091395300,6.489395263671875,0.01919899508357048,0.3763909339904785,-0.08946197479963303
1718311095141168400,6.53916845703125,0.027655595913529396,0.26841628551483154,-0.07345450669527054
1718311095190941400,6.58894140625,-0.08802279829978943,0.17394782602787018,-0.20581920444965363
1718311095240714200,6.63871435546875,0.08668722212314606,0.06624426692724228,-0.19927449524402618
1718311095290487300,6.6884873046875,-0.12796781957149506,-0.26935237646102905,-0.03666507080197334
1718311095340260400,6.73826025390625,-0.11971175670623779,0.05528455972671509,-0.39353451132774353
1718311095390033200,6.788033203125,-0.08562222868204117,0.22620438039302826,-0.4693547189235687
1718311095439806500,6.837806396484375,0.24720366299152374,0.35471442341804504,0.30454471707344055
1718311095489579500,6.88757958984375,0.2601455748081207,-0.09967119991779327,0.736193060874939
1718311095539352300,6.937352294921875,-0.002160090021789074,0.05355563759803772,-0.07623325288295746
1718311095589125400,6.98712548828125,0.5069878101348877,0.40842825174331665,-0.2364863008260727
1718311095638899200,7.036899169921875,0.44874104857444763,-0.027226028963923454,0.13005946576595306
1718311095688671700,7.086671630859375,0.3647729158401489,0.24717649817466736,0.07598424702882767
1718311095738444800,7.13644482421875,0.5979952216148376,-0.02653520368039608,0.16370265185832977
1718311095788217900,7.1862177734375,0.2816697657108307,0.1370910108089447,-0.0957997590303421
1718311095837990700,7.23599072265625,0.37064117193222046,-0.1003580316901207,0.10556957125663757
1718311095887763700,7.285763671875,0.23317919671535492,-0.17900969088077545,0.09566181153059006
1718311095937536800,7.335536865234375,0.03803712874650955,0.0336756706237793,-0.12342846393585205
1718311095987309800,7.385309814453125,-0.08513247221708298,-0.4776560366153717,0.13520602881908417
1718311096037083000,7.435082763671875,-0.21021528542041779,-0.1744847148656845,-0.2948787808418274
1718311096086856000,7.48485595703125,-0.3729408085346222,-0.07483828812837601,-0.17531323432922363
1718311096136629000,7.53462890625,0.01423459593206644,-0.4166547358036041,0.3231210708618164
1718311096186401800,7.58440185546875,0.13121367990970612,-0.03508448228240013,0.23841603100299835
1718311096236174800,7.6341748046875,-0.2009275108575821,-0.231120303273201,0.28241652250289917
1718311096285948000,7.683947998046875,-0.3089248239994049,0.2114616483449936,0.0748036652803421
1718311096335720700,7.733720703125,-0.05445578321814537,0.10916190594434738,-0.13620178401470184
1718311096385494800,7.783494873046875,-0.16386429965496063,-0.10960665345191956,0.01888713799417019
1718311096435267800,7.833267822265625,-0.11457984149456024,-0.1591600924730301,-0.04001026600599289
1718311096485041000,7.883041015625,-0.28378403186798096,0.04812625050544739,-0.19374549388885498
1718311096534814000,7.93281396484375,-0.11832504719495773,-0.07314744591712952,-0.11705151945352554
1718311096584586800,7.982586669921875,-0.3106774389743805,0.0002697782183531672,-0.2565532326698303
1718311096634359800,8.03235986328125,-0.4385856091976166,0.2881748080253601,-0.2125583291053772
1718311096684132900,8.0821328125,-0.30012014508247375,-0.0491611547768116,0.25242772698402405
1718311096733906200,8.13190625,-0.09211474657058716,0.1611177772283554,0.4192880690097809
1718311096783679200,8.18167919921875,-0.2725204825401306,-0.1929153949022293,0.32506516575813293
1718311096833452300,8.231452392578126,-0.8986522555351257,0.005258145276457071,0.31911540031433105
1718311096883225000,8.28122509765625,-0.5829302668571472,-0.7238399982452393,0.9386335015296936
1718311096932998400,8.330998291015625,-0.7894107699394226,-2.417037010192871,1.0714479684829712
1718311096982771500,8.380771484375,-0.8210634589195251,-1.9496227502822876,0.16876745223999023
1718311097032544300,8.430544189453125,0.5834035277366638,1.3451964855194092,-1.5182393789291382
1718311097082317300,8.4803173828125,0.1630280613899231,-0.20461945235729218,-0.2176998406648636
1718311097132090400,8.53009033203125,0.06533053517341614,-0.4489232003688812,0.5200586318969727
1718311097181863400,8.579863525390625,0.14475958049297333,-0.23967809975147247,0.2172715961933136
1718311097231636200,8.62963623046875,-0.059731774032115936,0.04747670516371727,-0.2738214135169983
1718311097281410300,8.679410400390625,0.04418077692389488,-0.1327551156282425,-0.314895361661911
1718311097331183400,8.729183349609375,-0.08548080921173096,-0.03525466099381447,-0.42185935378074646
1718311097380956400,8.778956298828126,0.33185648918151855,-0.6391650438308716,-0.4083257019519806
1718311097430729500,8.8287294921875,0.5482649803161621,-0.1712692230939865,-0.31206148862838745
1718311097480502300,8.878502197265625,0.9037351608276367,0.22442831099033356,0.2570858597755432
1718311097530275300,8.928275390625,0.6960213780403137,0.08239154517650604,0.07933716475963593
1718311097580048400,8.97804833984375,0.56404048204422,0.13244566321372986,0.4529690742492676
1718311097629821200,9.0278212890625,0.5985769033432007,0.5773760080337524,0.6957747936248779
1718311097679594200,9.07759423828125,0.40472379326820374,-0.40117084980010986,1.3037770986557007
1718311097729367000,9.127366943359375,0.04572940617799759,0.12258024513721466,1.0176178216934204
1718311097779140000,9.17714013671875,-0.008202802389860153,-0.23376429080963135,1.4109115600585938
1718311097828913000,9.226912841796874,-0.07446224987506866,-0.2604353129863739,0.9176265001296997
1718311097878686000,9.27668603515625,-0.42290252447128296,-0.48461756110191345,0.6922492980957031
1718311097928459300,9.326459228515626,-0.6094947457313538,-0.4279175102710724,0.5063686370849609
1718311097978232000,9.376232177734375,-0.5495297312736511,0.015561383217573166,-0.08405043184757233
1718311098028005000,9.426005126953125,-0.7661805152893066,0.1384422928094864,-0.09846052527427673
1718311098077778200,9.475778076171874,-0.6862074136734009,0.1980196088552475,-0.021323664113879204
1718311098127551000,9.525551025390625,-0.6891552209854126,-0.18717440962791443,-0.2355954796075821
1718311098177324000,9.575323974609375,-0.6082772016525269,0.3124532401561737,-0.2761109471321106
1718311098227097000,9.62509716796875,-0.43878400325775146,-0.3009316027164459,-0.14187271893024445
1718311098276870000,9.674869873046875,-0.4690553545951843,-0.2787831723690033,-0.122592493891716
1718311098326643000,9.724642822265626,-0.24388456344604492,-0.26347479224205017,-0.17805016040802002
1718311098376416000,9.774416015625,-0.27419161796569824,-0.19077101349830627,-0.032222118228673935
1718311098426189300,9.824189208984375,-0.27004480361938477,-0.2879287302494049,0.037765756249427795
1718311098475962000,9.873962158203126,-0.26153308153152466,-0.39743444323539734,-0.04183799400925636
1718311098525735200,9.923735107421875,-0.214385524392128,0.07708866149187088,0.019096728414297104
1718311098575508200,9.97350830078125,-0.38405659794807434,-0.5292654633522034,-0.0338868610560894
1718311098625282000,10.023281982421874,-0.3050488531589508,0.411877304315567,-0.3087005913257599
1718311098675055000,10.07305517578125,-0.3790527880191803,-0.431456595659256,0.14295102655887604
1718311098724828200,10.122828125,-0.34043774008750916,0.26775580644607544,-0.22439555823802948
1718311098774601200,10.172601318359375,-0.18011197447776794,-0.25684404373168945,0.257401704788208
1718311098824374300,10.222374267578125,-0.2193368822336197,0.28626585006713867,-0.2281077355146408
1718311098874147000,10.27214697265625,-0.17950505018234253,-0.00782410055398941,-0.08484511822462082
1718311098923920100,10.321920166015625,-0.17338776588439941,0.3195742666721344,-0.23131844401359558
1718311098973693200,10.371693115234375,-0.07746656239032745,0.27102750539779663,-0.3867253363132477
1718311099023466000,10.421466064453124,0.1523064523935318,0.5433658361434937,-0.1673961877822876
1718311099073239000,10.471239013671875,0.14420057833194733,0.3656828999519348,-0.3313473165035248
1718311099123012400,10.521012451171876,0.023376429453492165,0.7928526401519775,-0.7202236652374268
1718311099172785400,10.570785400390625,0.016833309084177017,-0.6058235764503479,-0.05266560986638069
1718311099222558200,10.62055810546875,0.14344345033168793,-0.5123754143714905,0.025617744773626328
1718311099272331300,10.670331298828126,0.45264655351638794,0.6784821152687073,0.09670443832874298
1718311099322104300,10.720104248046875,0.4437201917171478,-0.06608394533395767,0.18165048956871033
1718311099371877000,10.769877197265625,0.22914209961891174,0.37973055243492126,0.29185476899147034
1718311099421650200,10.819650146484374,0.2501065135002136,-0.03585999459028244,0.18121425807476044
1718311099471423200,10.86942333984375,-0.07970787584781647,0.21160438656806946,-0.09061059355735779
1718311099521196000,10.919196044921875,-0.02749207802116871,-0.45691242814064026,-0.1554095596075058
1718311099570969000,10.968968994140624,-0.31028464436531067,0.2528594136238098,-0.4434032738208771
1718311099620742100,11.0187421875,-0.30625659227371216,-0.46279001235961914,0.017958227545022964
1718311099670515200,11.06851513671875,-0.507031261920929,-0.32036682963371277,-0.37351125478744507
1718311099720288000,11.1182880859375,-0.35013484954833984,-1.2514108419418335,-0.34064146876335144
1718311099770061000,11.16806103515625,-0.3562459945678711,-0.9449441432952881,-0.19568294286727905
1718311099819834000,11.217834228515626,-0.28021302819252014,-1.5195770263671875,0.6076558828353882
1718311099869607000,11.26760693359375,-0.2016657441854477,-0.6678742170333862,0.24978160858154297
1718311099919380200,11.317380126953125,-0.41662678122520447,-0.2711670696735382,0.0006468818173743784
1718311099969153300,11.3671533203125,-0.12747247517108917,-0.055456601083278656,0.034203242510557175
1718311100018926000,11.416926025390625,-0.017615744844079018,0.05499880388379097,-0.0832621306180954
1718311100068699100,11.46669921875,0.17132887244224548,0.12335176020860672,0.14021968841552734
1718311100118472200,11.51647216796875,0.2882927656173706,0.10813578963279724,-0.31729885935783386
1718311100168244200,11.566244140625,0.38992753624916077,0.007450459524989128,-0.17610259354114532
1718311100218017000,11.61601708984375,0.399701327085495,0.1773281842470169,-0.4282805025577545
1718311100267790000,11.6657900390625,0.3179934024810791,-0.136473149061203,-0.3217679262161255
1718311100317563100,11.715563232421875,0.34603917598724365,0.06918226927518845,-0.299167275428772
1718311100367336000,11.7653359375,0.29710277915000916,-0.4523072838783264,0.5446979403495789
1718311100417109000,11.81510888671875,0.06707863509654999,-0.4399486184120178,1.0534948110580444
1718311100466882000,11.864882080078125,0.2084517478942871,0.2820303440093994,0.7693288922309875
1718311100516654800,11.91465478515625,-0.01691240444779396,0.020438961684703827,0.7722437381744385
1718311100566428200,11.96442822265625,-0.09348893910646439,-0.016440225765109062,0.25159016251564026
1718311100616201200,12.014201171875,-0.34012243151664734,-0.12644129991531372,0.09240982681512833
1718311100665974000,12.06397412109375,-0.400743693113327,0.2941163182258606,-0.09226654469966888
1718311100715747000,12.1137470703125,-0.14674469828605652,-0.12660135328769684,0.3575807809829712
1718311100765520100,12.16352001953125,0.16751974821090698,-0.26626309752464294,-0.05096278339624405
1718311100815293200,12.213293212890624,0.17108626663684845,-0.25366610288619995,-0.5890435576438904
1718311100865066000,12.26306591796875,0.14008599519729614,-0.17182421684265137,-0.25947630405426025
1718311100914839000,12.312839111328126,-0.06313049793243408,-0.40558984875679016,-0.3840904235839844
1718311100964612000,12.362612060546875,-0.1120317280292511,-0.048525456339120865,-0.05721268802881241
1718311101014385000,12.412385009765625,-0.14569221436977386,-0.39922088384628296,0.53692227602005
1718311101064158000,12.462157958984376,-0.20469827950000763,0.18355251848697662,0.7732882499694824
1718311101113931300,12.51193115234375,-0.2767027020454407,-0.14621900022029877,0.5140843391418457
1718311101163704000,12.5617041015625,-0.14978629350662231,0.2615644931793213,0.4878802001476288
1718311101213477000,12.61147705078125,-0.03912343457341194,0.17593242228031158,-0.38491520285606384
1718311101263250200,12.661250244140625,0.10650700330734253,0.501433253288269,-0.4430546462535858
1718311101313023000,12.71102294921875,0.3900143504142761,-0.02558259107172489,0.027175694704055786
1718311101362796000,12.760796142578124,0.4421404004096985,0.22563739120960236,-0.2551199197769165
1718311101412569000,12.810569091796875,0.6339199542999268,-0.060382917523384094,-0.4142616391181946
1718311101462342100,12.860342041015626,0.6117566227912903,-0.03696201369166374,-0.9502182602882385
1718311101512114200,12.9101142578125,0.479383647441864,-0.03181198984384537,-0.33900734782218933
1718311101561887000,12.959886962890625,0.21872541308403015,0.33471086621284485,0.9060145616531372
1718311101611660000,13.009659912109376,0.39534786343574524,-0.4032561182975769,1.5515695810317993
1718311101661433000,13.05943310546875,-0.10410003364086151,0.13752244412899017,0.9166840314865112
1718311101711206000,13.109205810546875,-0.32106325030326843,-0.10574613511562347,0.33399420976638794
1718311101760979000,13.15897900390625,-0.59698885679245,0.07738187164068222,-0.3398078978061676
1718311101810752000,13.208751953125,-0.40388116240501404,0.26602768898010254,-0.07653525471687317
1718311101860524800,13.25852490234375,-0.1808249056339264,-0.32164594531059265,0.04457758739590645
1718311101910297900,13.3082978515625,-0.11517452448606491,-0.28347939252853394,-0.44835567474365234
1718311101960071200,13.3580712890625,-0.12369770556688309,-0.377290815114975,-0.4702681601047516
1718311102009844000,13.407843994140626,-0.11338621377944946,0.02659832127392292,-1.1607768535614014
1718311102059617000,13.457616943359374,-0.08767339587211609,-0.2755168080329895,-0.5943506956100464
1718311102109390000,13.50739013671875,0.03779691457748413,-0.05895306542515755,-0.18400925397872925
1718311102159163000,13.557162841796876,-0.018750784918665886,-0.07865326851606369,0.5819036364555359
1718311102208935000,13.606934814453124,0.20581866800785065,-0.985524594783783,0.6783305406570435
1718311102258708000,13.6567080078125,0.6762498617172241,-1.767746925354004,0.7486934065818787
1718311102308481000,13.70648095703125,1.0723446607589722,-1.2072889804840088,-0.3908843994140625
1718311102358254000,13.756254150390625,2.091392755508423,-2.625403881072998,-0.20949169993400574
1718311102408027000,13.80602685546875,1.484024167060852,-5.210980415344238,1.9593435525894165
1718311102457800000,13.855800048828126,1.829447865486145,-5.59278678894043,1.7641236782073975
1718311102507573000,13.905572998046875,2.8862686157226562,-4.801004409790039,1.0393028259277344
1718311102557345800,13.955345703125,3.1269140243530273,-2.7652230262756348,1.0207997560501099
1718311102607119000,14.005119140625,5.549242973327637,1.4504954814910889,-0.30233481526374817
1718311102656892200,14.05489208984375,5.644897937774658,0.5319251418113708,0.3780282437801361
1718311102706665000,14.1046650390625,4.143359661102295,-1.0544517040252686,2.7730355262756348
1718311102756438000,14.15443798828125,2.755047559738159,-1.5764262676239014,3.6158976554870605
1718311102806210000,14.2042099609375,-0.13988998532295227,-2.012801170349121,3.537795066833496
1718311102855983000,14.253983154296876,-3.284895420074463,-0.8985598683357239,1.4840084314346313
1718311102905756000,14.303755859375,-2.8335933685302734,0.7055086493492126,-0.6985461115837097
1718311102955529000,14.353529052734375,0.7955319881439209,-2.1117053031921387,1.4619630575180054
1718311103005302000,14.403302001953126,0.4331069588661194,2.1591100692749023,-0.4731161594390869
1718311103055075000,14.453074951171875,0.19240060448646545,2.2468152046203613,-1.8339024782180786
1718311103104848100,14.50284814453125,0.08856528252363205,0.46019983291625977,-1.388163685798645
1718311103154621200,14.55262109375,-1.6668410301208496,-1.4369533061981201,-1.7512598037719727
1718311103204394000,14.60239404296875,0.6121084094047546,-5.325899124145508,-0.7852301001548767
1718311103254167000,14.6521669921875,2.6101019382476807,-3.4051220417022705,-0.7243643403053284
1718311103303940000,14.701940185546874,-0.07355624437332153,-2.8371150493621826,-0.05176332965493202
1718311103353712000,14.751712158203125,0.12110219150781631,-4.215856552124023,-0.37975797057151794
1718311103403485200,14.801485107421875,-2.0437779426574707,-1.8251452445983887,-0.6890450119972229
1718311103453258000,14.851258056640624,-0.9280032515525818,0.03644509240984917,-1.5527163743972778
1718311103503031000,14.901031005859375,-0.25280508399009705,-0.7264144420623779,0.08259687572717667
1718311103552804000,14.95080419921875,0.49919649958610535,-0.6341423392295837,0.9243302345275879
1718311103602577000,15.000576904296874,0.6761265397071838,1.1683958768844604,0.8276242017745972
1718311103652350200,15.05035009765625,1.696025013923645,1.9320701360702515,0.7557995319366455
1718311103702122800,15.100122802734376,2.1073005199432373,2.5673162937164307,1.3874679803848267
1718311103751895600,15.1498955078125,4.4091901779174805,0.6439208984375,6.430737018585205
1718311103801667600,15.19966748046875,2.053436279296875,-2.4095346927642822,3.7156081199645996
1718311103851440600,15.249440673828126,2.1225757598876953,-0.7697976231575012,1.8128470182418823
1718311103901213700,15.299213623046874,-1.2266682386398315,1.1636745929718018,0.49414846301078796
1718311103950986500,15.348986572265625,-2.293119192123413,3.789546012878418,-0.19278836250305176
1718311104000759600,15.398759521484376,0.9205543994903564,-0.13652615249156952,0.9428434371948242
1718311104050532600,15.44853271484375,0.18285690248012543,-0.7514066100120544,0.9855690598487854
1718311104100305700,15.4983056640625,4.579746246337891,-1.4936482906341553,1.2592096328735352
1718311104150078500,15.548078369140624,4.166380882263184,-2.432649850845337,-1.1300932168960571
1718311104199850500,15.5978505859375,-0.03231053426861763,0.22131933271884918,-0.733569860458374
1718311104249623600,15.64762353515625,-0.7928630113601685,-1.182875156402588,-0.9532824754714966
1718311104299396600,15.697396728515624,0.20832736790180206,0.059116583317518234,-2.5447707176208496
1718311104349169400,15.74716943359375,0.46528884768486023,-0.3082185387611389,-2.6732139587402344
1718311104398942700,15.796942626953125,0.82069993019104,-0.7419247031211853,-3.727633237838745
1718311104448715800,15.8467158203125,1.3655859231948853,-2.570498466491699,-3.369446277618408
1718311104498488600,15.896488525390625,0.7131165266036987,-2.3875041007995605,-3.676414966583252
1718311104548260600,15.946260498046875,0.6450490355491638,-2.028712034225464,-1.8477810621261597
1718311104598033700,15.99603369140625,0.676200807094574,-1.7903039455413818,-2.0233001708984375
1718311104647806700,16.045806640625,-0.4306168854236603,-0.6066576838493347,0.5785885453224182
1718311104697580000,16.095580078125,-0.6770474314689636,0.22874502837657928,1.0595197677612305
1718311104747353000,16.14535302734375,-1.0393904447555542,1.2031173706054688,1.9855746030807495
1718311104797126100,16.195126220703123,-1.4327263832092285,1.3871623277664185,2.3364622592926025
1718311104846899000,16.24489892578125,-1.3846278190612793,3.0794079303741455,3.417332649230957
1718311104896671000,16.2946708984375,-1.3409998416900635,0.7700290679931641,3.0231597423553467
1718311104946444000,16.344444091796873,-1.331003189086914,0.4343370795249939,1.3755275011062622
1718311104996217000,16.394217041015626,-0.8513484001159668,1.3874698877334595,2.33717679977417
1718311105045990000,16.443989990234375,-0.36408475041389465,3.635740280151367,1.3017685413360596
1718311105095763000,16.493762939453124,-0.26723942160606384,-0.16690003871917725,1.2727265357971191
1718311105145536300,16.543536376953124,0.025660090148448944,1.2414405345916748,0.3840097188949585
1718311105195308000,16.59330810546875,0.10390083491802216,0.12740854918956757,0.389274001121521
1718311105245081000,16.6430810546875,0.25596946477890015,-0.13469229638576508,-0.2910076081752777
1718311105294854100,16.692854248046874,0.25425997376441956,-0.5640684366226196,-1.188309907913208
1718311105344627200,16.742627197265627,0.9263531565666199,-1.4330408573150635,-2.7815120220184326
1718311105394400000,16.79239990234375,0.9763777256011963,0.2150755524635315,-2.882560968399048
1718311105444173000,16.842173095703124,1.0109466314315796,-0.013802630826830864,-3.810274124145508
1718311105493946000,16.891946044921873,0.718039870262146,-0.45106491446495056,-3.3243930339813232
1718311105543718100,16.94171826171875,-0.04513046145439148,-2.71384596824646,-3.960866928100586
1718311105593491200,16.9914912109375,0.19360116124153137,-2.7190728187561035,-1.9180631637573242
1718311105643264000,17.041263916015627,0.3296319544315338,-1.6812578439712524,-1.6982579231262207
1718311105693037000,17.091037109375,-0.4095057547092438,-0.8304598927497864,0.09950315207242966
1718311105742809600,17.1408095703125,-0.5654455423355103,1.2025402784347534,1.507280945777893
1718311105792582400,17.19058251953125,-0.855148196220398,1.9991739988327026,2.376279592514038
1718311105842354400,17.2403544921875,-1.343855619430542,2.2210450172424316,2.9045443534851074
1718311105892127500,17.29012744140625,-1.1907293796539307,3.137397050857544,3.784182071685791
1718311105941900500,17.339900634765623,-0.9325103759765625,1.2550053596496582,3.262769937515259
1718311105991673300,17.38967333984375,0.2970045208930969,-1.1927534341812134,2.198547601699829
1718311106041446400,17.4394462890625,-0.36753514409065247,1.0021443367004395,1.8860445022583008
1718311106091219500,17.489219482421873,-1.0409108400344849,4.404709815979004,1.9372904300689697
1718311106140992500,17.538992431640626,0.3165057599544525,-2.1036758422851562,0.4239528775215149
1718311106190764500,17.5887646484375,-0.40228378772735596,1.9420257806777954,0.31970688700675964
1718311106240537300,17.638537353515623,0.20737075805664062,-0.4745404124259949,0.032046616077423096
1718311106290310400,17.688310302734376,0.375826895236969,-0.11713621020317078,-0.6269563436508179
1718311106340083500,17.73808349609375,0.2837371826171875,-1.5765916109085083,-1.5640166997909546
1718311106389856300,17.787856201171873,0.17666691541671753,-1.878227949142456,-3.590636730194092
1718311106439629600,17.837629638671874,1.4056435823440552,-1.2616655826568604,-4.95734977722168
1718311106489401300,17.8874013671875,3.7203168869018555,-0.8660562634468079,-4.091251373291016
1718311106539174700,17.937174560546875,0.26726844906806946,-2.184866189956665,-3.419191598892212
1718311106588947500,17.986947509765624,0.2362426221370697,-1.6710270643234253,-1.8448054790496826
1718311106638720500,18.036720458984377,0.3496544063091278,-2.723176956176758,-2.966851234436035
1718311106688493600,18.08649365234375,-0.3453472852706909,-1.5169475078582764,0.0855386033654213
1718311106738266600,18.1362666015625,-0.7657698392868042,0.7285189032554626,1.5211304426193237
1718311106788038700,18.18603857421875,-1.2581965923309326,2.617540121078491,2.729419231414795
1718311106837811700,18.235811767578124,-1.432389736175537,2.6046841144561768,3.254534959793091
1718311106887585000,18.2855849609375,-0.9577938914299011,2.823281764984131,3.9267385005950928
1718311106937357800,18.33535791015625,-1.5778437852859497,-0.7129449844360352,3.1394834518432617
1718311106987131000,18.385130859375,-0.40439140796661377,0.8569653034210205,2.216942071914673
1718311107036904000,18.434904052734375,-0.6317564249038696,0.8773621916770935,1.601999282836914
1718311107086676000,18.484676025390623,-0.7259675860404968,3.9947736263275146,1.3795064687728882
1718311107136448800,18.53444873046875,0.11957859247922897,-2.0910794734954834,0.6888028979301453
1718311107186221800,18.584221923828125,-0.2012217938899994,1.7292128801345825,0.36969736218452454
1718311107235995000,18.633994873046873,0.2623565196990967,-0.21354396641254425,-0.23357947170734406
1718311107285767700,18.683767578125,0.42299121618270874,-0.8578819632530212,-1.0460944175720215
1718311107335540700,18.733540771484375,0.2054879069328308,-1.6989407539367676,-2.713695764541626
1718311107385312800,18.783312744140623,0.8785129189491272,-1.8808090686798096,-4.89088773727417
1718311107435085800,18.8330859375,2.750638484954834,0.1902032345533371,-3.834864854812622
1718311107484858600,18.882858642578125,1.5348864793777466,-2.728985071182251,-3.8045737743377686
1718311107534631700,18.932631591796873,-0.16823162138462067,-1.7411470413208008,-2.4482550621032715
1718311107584404700,18.98240478515625,0.12288784235715866,-2.339951753616333,-1.9144530296325684
1718311107634176800,19.0321767578125,0.10024883598089218,-1.94468092918396,-0.24469150602817535
1718311107683949800,19.08194970703125,-0.6237693428993225,0.941523551940918,1.1543660163879395
1718311107733723100,19.13172314453125,-0.5491718053817749,3.1007204055786133,2.6361396312713623
1718311107783496200,19.18149609375,-1.2421143054962158,2.5508229732513428,3.13594651222229
1718311107833269000,19.23126904296875,-1.1790013313293457,2.8108584880828857,3.6948790550231934
1718311107883041000,19.281041015625,-1.0596240758895874,0.14217498898506165,3.398308753967285
1718311107932814000,19.33081396484375,-0.536767303943634,-1.3044456243515015,2.2234818935394287
1718311107982587100,19.380587158203124,-1.0236551761627197,2.5044636726379395,2.0251965522766113
1718311108032360200,19.430360107421876,-0.16407762467861176,3.3696298599243164,1.143929123878479
1718311108082133000,19.480133056640625,0.037468280643224716,-1.077850580215454,0.7475290894508362
1718311108131905000,19.529905029296874,-0.22902625799179077,1.1378777027130127,0.23122896254062653
1718311108181678000,19.579677978515626,0.5890012383460999,-1.4464935064315796,-0.8576071262359619
1718311108231451100,19.629451171875,0.640854001045227,-1.3819947242736816,-2.717461347579956
1718311108281224000,19.679223876953124,0.4531187415122986,0.23596858978271484,-2.472712278366089
1718311108330997000,19.7289970703125,0.9829010963439941,-0.5685617327690125,-2.693345308303833
1718311108380769000,19.77876904296875,1.235599160194397,-1.2124296426773071,-2.951627016067505
1718311108430542000,19.8285419921875,0.43703219294548035,-3.902238607406616,-3.3601508140563965
1718311108480315000,19.87831494140625,1.4578907489776611,-2.675035238265991,-2.59020733833313
1718311108530088200,19.928088134765623,0.5498210787773132,-1.91635262966156,-2.4096057415008545
1718311108579861200,19.977861328125,-0.3936634063720703,-1.4000357389450073,-0.5875253081321716
1718311108629633300,20.02763330078125,-0.996872067451477,0.12518401443958282,0.7814385890960693
1718311108679406000,20.077406005859373,-0.873970091342926,1.6277661323547363,1.5381571054458618
1718311108729178400,20.127178466796874,-0.6164402961730957,2.0731310844421387,2.4085192680358887
1718311108778951400,20.176951416015626,-0.9656928181648254,1.0313471555709839,3.0398473739624023
1718311108828723500,20.226723388671875,-1.9558830261230469,2.9187471866607666,2.644761085510254
1718311108878496500,20.27649658203125,-1.110593318939209,1.3749780654907227,2.3145670890808105
1718311108928269300,20.326269287109376,-0.3071570098400116,0.4533456563949585,1.5653355121612549
1718311108978042400,20.37604248046875,-0.06554039567708969,1.0812000036239624,1.2448190450668335
1718311109027814400,20.425814453125,-0.7904072999954224,1.0203027725219727,0.8786032199859619
1718311109077587500,20.47558740234375,-0.23695901036262512,0.6778983473777771,0.8968203067779541
1718311109127360300,20.5253603515625,-0.17735347151756287,0.12033519893884659,0.7732272744178772
1718311109177133300,20.57513330078125,-0.4601529538631439,-0.1301787793636322,0.843328058719635
1718311109226906400,20.62490625,0.009884854778647423,-0.03019625134766102,0.24510934948921204
1718311109276678400,20.674678466796873,-0.07118149846792221,-0.08415669202804565,0.3908814787864685
1718311109326451200,20.724451171875,0.09455712884664536,-0.17418591678142548,0.25317180156707764
1718311109376224300,20.774224365234375,0.17884458601474762,-0.46693283319473267,0.11362030357122421
1718311109425997300,20.823997314453123,0.3558736741542816,-0.4194912910461426,-0.40143024921417236
1718311109475769300,20.873769287109376,0.16106611490249634,-0.33598172664642334,-0.9406857490539551
1718311109525542100,20.923542236328124,0.34380584955215454,-0.6622679829597473,-1.1448322534561157
1718311109575315500,20.9733154296875,0.6316149830818176,-0.5856850743293762,-1.2646784782409668
1718311109625088500,21.023088623046874,0.5663643479347229,-0.5421298742294312,-1.1470575332641602
1718311109674860500,21.072860595703126,0.47101518511772156,-1.4295576810836792,-1.1089192628860474
1718311109724633300,21.12263330078125,0.6216238737106323,-0.8319600820541382,-1.1039551496505737
1718311109774406400,21.172406494140624,0.7209499478340149,-0.6245278120040894,-1.2440687417984009
1718311109824178200,21.22217822265625,0.3861066997051239,-1.473365306854248,-1.0798159837722778
1718311109873951500,21.271951416015625,0.4958166778087616,-1.0761027336120605,-0.721173107624054
1718311109923724300,21.321724365234374,0.41651466488838196,-1.481714129447937,-0.9141265749931335
1718311109973497300,21.371497314453126,0.24491387605667114,-0.6465017795562744,-0.5650343894958496
1718311110023269400,21.421269287109375,0.22412976622581482,-0.5747913718223572,-0.34697073698043823
1718311110073042400,21.47104248046875,0.252544105052948,-0.24041393399238586,-0.34945574402809143
1718311110122815500,21.5208154296875,0.04163878783583641,-0.1051301509141922,-0.22076939046382904
1718311110172588300,21.57058837890625,0.057668089866638184,0.07711715251207352,-0.10413438826799393
1718311110222360300,21.6203603515625,0.03295555338263512,0.058757323771715164,-0.017224792391061783
1718311110272133400,21.67013330078125,-0.05109940469264984,0.14247672259807587,0.08868725597858429
1718311110321906400,21.719906494140623,-0.007980961352586746,0.26305559277534485,0.0936649739742279
1718311110371678500,21.769678466796876,0.1653980165719986,0.33588531613349915,-0.034759845584630966
1718311110421451300,21.819451171875,0.21884845197200775,0.3810940980911255,0.13191142678260803
1718311110471224300,21.869224365234373,0.014364558272063732,0.5639944076538086,0.3162868618965149
1718311110520996400,21.918996337890626,-0.21624495089054108,0.7827235460281372,0.2725801169872284
1718311110570769400,21.968769287109374,0.0033896714448928833,0.5777373909950256,0.11627627909183502
1718311110620542200,22.018542236328123,-0.020486366003751755,0.4351208508014679,0.10445130616426468
1718311110670315300,22.068315185546876,0.5072522759437561,-1.389496088027954,-0.6136447787284851
1718311110720087300,22.11808740234375,0.2679020166397095,0.6931992769241333,0.16484035551548004
1718311110769860400,22.1678603515625,0.47147271037101746,0.47275105118751526,-0.2364354431629181
1718311110819633200,22.217633056640626,0.4404815137386322,0.17329642176628113,-0.35684120655059814
1718311110869405200,22.2674052734375,-0.001621066126972437,0.1673509180545807,-0.5549575090408325
1718311110919178200,22.31717822265625,0.25766721367836,-0.21899306774139404,-0.5778223276138306
1718311110968951300,22.366951416015624,0.23967064917087555,0.0823071226477623,-0.4488763213157654
1718311111018723300,22.416723388671876,0.10964900255203247,-0.2749021351337433,-0.7013996839523315
1718311111068496100,22.46649609375,0.3311145305633545,-0.4832702577114105,-0.7956268191337585
1718311111118269200,22.516269287109374,0.148240327835083,-0.4118882119655609,-0.7011152505874634
1718311111168041200,22.566041259765626,0.173720121383667,-0.0714065358042717,-0.5993568897247314
1718311111217814300,22.615814208984375,0.3048379421234131,-0.14931705594062805,-0.48294854164123535
1718311111267587000,22.665587158203124,0.2895503342151642,0.22075848281383514,-0.2649206221103668
1718311111317359000,22.715359130859376,-0.26864343881607056,-0.24889211356639862,-0.12001881748437881
1718311111367132200,22.765132080078125,0.018800850957632065,-0.23798780143260956,0.036312468349933624
1718311111416905200,22.8149052734375,0.10325048863887787,-0.2431255728006363,0.1702907681465149
1718311111466677200,22.86467724609375,-0.044479850679636,-0.44426798820495605,-0.2027544379234314
1718311111516450000,22.914449951171875,-0.0868866965174675,-0.3196922540664673,-0.23574115335941315
1718311111566223000,22.96422314453125,-0.18543723225593567,-0.014542724005877972,-0.062613844871521
1718311111615995100,23.0139951171875,-0.03459419682621956,-0.0051721250638365746,0.08990645408630371
1718311111665768200,23.063768310546877,0.10351840406656265,-0.33240166306495667,-0.06740673631429672
1718311111715540500,23.11354052734375,-0.14334358274936676,-0.28980571031570435,-0.17286790907382965
1718311111765313300,23.163313232421874,-0.24067120254039764,-0.21334530413150787,-0.18738241493701935
1718311111815086300,23.21308642578125,-0.16338413953781128,-0.2624417543411255,-0.196561798453331
1718311111864858400,23.2628583984375,-0.06682270765304565,-0.13858823478221893,-0.09866426140069962
1718311111914631400,23.31263134765625,-0.05685848742723465,0.20716357231140137,0.09336723387241364
1718311111964404200,23.362404296875,-0.09681922197341919,0.17284661531448364,0.20398029685020447
1718311112014176300,23.41217626953125,-0.09078822284936905,0.08593142032623291,0.1683402806520462
1718311112063949300,23.46194921875,-0.1595878005027771,0.013045760802924633,0.09550148993730545
1718311112113721300,23.511721435546875,-0.21188747882843018,0.0662517249584198,0.10472720861434937
1718311112163494400,23.561494384765624,-0.17690153419971466,0.2067720890045166,0.13352370262145996
1718311112213267200,23.61126708984375,-0.10416129231452942,0.24919810891151428,0.10275913774967194
1718311112263039200,23.661039306640625,-0.09879821538925171,0.1256849616765976,0.11216408759355545
1718311112312812300,23.710812255859373,-0.11915089190006256,0.060798369348049164,0.05462995544075966
1718311112362585600,23.760585693359374,-0.1203828677535057,0.060870807617902756,0.00660677021369338
1718311112412357400,23.810357421875,-0.01510198786854744,0.16200195252895355,0.031565647572278976
1718311112462130400,23.86013037109375,-0.006493852008134127,0.1630597561597824,0.150629460811615
1718311112511902200,23.909902099609376,-0.06441973894834518,0.2302209585905075,0.4341360032558441
1718311112561675500,23.959675537109376,-0.0926244780421257,-0.0443434976041317,0.42237362265586853
1718311112611448600,24.009448486328125,-0.20523278415203094,-0.4027429223060608,0.39345622062683105
1718311112661220600,24.059220703125,-0.2021871954202652,-0.34802189469337463,0.34539762139320374
1718311112710994000,24.108993896484375,-0.4074242413043976,-0.02672615274786949,0.3818168640136719
1718311112760766000,24.158765869140623,-0.33549705147743225,0.30660387873649597,0.4352436065673828
1718311112810539000,24.2085390625,-0.37284547090530396,0.7428725361824036,0.5743287801742554
1718311112860312000,24.25831201171875,-0.4815714359283447,0.8886979222297668,0.7486105561256409
1718311112910084000,24.308083984375,-0.47018054127693176,0.9464970231056213,0.8698142170906067
1718311112959857000,24.35785693359375,-0.40799254179000854,0.9319961071014404,0.9810017347335815
1718311113009629000,24.40762890625,-0.4304557740688324,0.630089521408081,0.9905398488044739
1718311113059402000,24.457402099609375,-0.34155547618865967,0.6222180128097534,0.7756863832473755
1718311113109174000,24.507174072265624,-0.39707544445991516,0.6877371072769165,0.8729248046875
1718311113158947000,24.556947021484376,-0.24077053368091583,0.9526166915893555,0.8069655299186707
1718311113208720000,24.606719970703125,-0.2612774074077606,1.0925370454788208,0.8125634789466858
1718311113258492000,24.656491943359374,-0.2764771282672882,0.8405793905258179,0.7078748941421509
1718311113308265000,24.706264892578126,-0.11262960731983185,0.21083500981330872,0.5879839062690735
1718311113358037000,24.756037109375,-0.2346266210079193,0.7118554711341858,0.6532387733459473
1718311113407810000,24.80581005859375,0.15288542211055756,-0.11929789930582047,0.25676974654197693
1718311113457582000,24.85558203125,0.12733878195285797,-0.3463784456253052,0.5767757296562195
1718311113507355000,24.90535498046875,0.8692547082901001,1.079503059387207,-0.0844925120472908
1718311113557128000,24.9551279296875,0.6239163279533386,2.6661477088928223,0.305632084608078
1718311113606900000,25.00489990234375,-0.7773886919021606,2.2690742015838623,0.8018612861633301
1718311113656673000,25.054673095703127,0.507337749004364,-0.5355947017669678,0.8481153249740601
1718311113706444300,25.1044443359375,-0.2038053274154663,2.0408926010131836,0.7756898403167725
1718311113756217300,25.15421728515625,-0.20084309577941895,1.001308560371399,0.9249014854431152
1718311113805989400,25.2039892578125,0.38323208689689636,-3.107189893722534,0.11247381567955017
1718311113855762200,25.25376220703125,-0.13319294154644012,1.3590353727340698,0.5219550728797913
1718311113905534200,25.3035341796875,0.5999222993850708,-1.3108246326446533,-0.6179007887840271
1718311113955307300,25.353307373046874,0.18923251330852509,0.6567330956459045,-0.18591633439064026
1718311114005079300,25.403079345703127,0.35625186562538147,-1.4177359342575073,-0.1656198501586914
1718311114054852400,25.452852294921875,0.13892513513565063,0.266034871339798,-0.49127304553985596
1718311114104624400,25.502624267578124,0.11660011857748032,0.18703752756118774,-0.18131013214588165
1718311114154397200,25.552397216796876,-0.013567207381129265,-0.8608084917068481,-0.0659332126379013
1718311114204170200,25.602170166015625,0.012382633984088898,0.5531105995178223,-0.07912225276231766
1718311114253942300,25.6519423828125,-0.042637743055820465,0.0599413625895977,0.26316317915916443
1718311114303715300,25.70171533203125,-0.060859620571136475,0.032636504620313644,0.3091929852962494
1718311114353487400,25.7514873046875,-0.03197444602847099,0.0277357567101717,0.10392586886882782
1718311114403260200,25.80126025390625,-0.05492929369211197,-0.12161272019147873,0.27981168031692505
1718311114453032200,25.8510322265625,-0.10935205966234207,-0.19509252905845642,0.23527775704860687
1718311114502805200,25.90080517578125,-0.18223531544208527,-0.2505967915058136,0.12957130372524261
1718311114552577300,25.950577392578126,-0.2929708957672119,0.29291442036628723,0.23942403495311737
1718311114602350300,26.000350341796874,-0.32607024908065796,0.06908053159713745,0.22464215755462646
1718311114652122400,26.050122314453127,-0.2485285848379135,-0.05393647029995918,0.14548157155513763
1718311114701895200,26.099895263671876,-0.1535581350326538,-0.20452144742012024,-0.01919633150100708
1718311114751668000,26.14966796875,-0.12177463620901108,-0.15689879655838013,-0.21359670162200928
1718311114801441000,26.19944091796875,-0.07573683559894562,0.017949173226952553,-0.05842975527048111
1718311114851213000,26.249213134765625,-0.25474387407302856,-0.376984566450119,-0.3298351764678955
1718311114900985000,26.298985107421874,-0.08064664155244827,-0.1840316206216812,-0.4580751657485962
1718311114950758000,26.3487578125,-0.04003316909074783,-0.1508619487285614,-0.6274287700653076
1718311115000530000,26.398530029296875,-0.19347812235355377,-0.27800071239471436,-0.31440508365631104
1718311115050303000,26.448302978515624,0.01733904331922531,-0.5144835710525513,-0.29231521487236023
1718311115100075000,26.498074951171876,-0.05907530337572098,0.18461059033870697,-0.3588239252567291
1718311115149848000,26.54784814453125,-0.07014952600002289,0.11130495369434357,-0.3008280098438263
1718311115199620000,26.5976201171875,-0.017853831872344017,-0.024343423545360565,-0.06090196594595909
1718311115249393000,26.647392822265626,0.05474047735333443,-0.27695730328559875,-0.04318102449178696
1718311115299165000,26.6971650390625,-0.040833715349435806,-0.252360075712204,-0.16533489525318146
1718311115348938000,26.74693798828125,0.02809741534292698,-0.4077824354171753,-0.03675401955842972
1718311115398710000,26.7967099609375,-0.021649900823831558,-0.09035519510507584,-0.2962726652622223
1718311115448483000,26.846483154296877,0.07945860922336578,-0.3650626540184021,-0.3768375515937805
1718311115498255000,26.896255126953125,0.04268354922533035,-0.5784249901771545,-0.11779613792896271
1718311115548028000,26.94602783203125,-0.021528195589780807,-0.983498215675354,-0.057790596038103104
1718311115597800000,26.995800048828126,-0.1086183562874794,-0.2423042505979538,0.019285546615719795
1718311115647573000,27.045572998046875,0.030889471992850304,0.21141956746578217,0.05910486355423927
1718311115697345000,27.095344970703124,-0.02382703498005867,0.5928633213043213,0.04315412789583206
1718311115747116300,27.1451162109375,0.031858861446380615,-0.5182511210441589,0.30969181656837463
1718311115796889300,27.194889404296877,-0.0361793078482151,-0.14030703902244568,0.18232986330986023
1718311115846661400,27.244661376953125,-0.01913481205701828,0.02497112937271595,0.1791396588087082
1718311115896434400,27.294434326171874,0.04296424612402916,0.3685489892959595,0.13228186964988708
1718311115946206200,27.344206298828126,-0.04793902859091759,0.19054678082466125,0.16073907911777496
1718311115995979300,27.393979248046875,-0.017177654430270195,0.17089611291885376,0.23196080327033997
1718311116045751300,27.443751220703124,-0.017068199813365936,-0.048108141869306564,0.2457684874534607
1718311116095524400,27.4935244140625,-0.08991523832082748,-0.02328082174062729,0.22792024910449982
1718311116145296400,27.54329638671875,0.06616676598787308,-0.3854108154773712,0.25227564573287964
1718311116195068400,27.593068359375,-0.19297398626804352,0.3653404116630554,0.36824485659599304
1718311116244841200,27.64284130859375,-0.16654451191425323,0.09390652179718018,0.3863815367221832
1718311116294613200,27.69261328125,-0.03488368168473244,0.15262416005134583,0.1609361618757248
1718311116344386300,27.74238623046875,-0.0531308613717556,0.8006335496902466,0.0026162895374000072
1718311116394158300,27.792158447265624,0.18236447870731354,-0.5436918139457703,0.2450297325849533
1718311116443931400,27.841931396484377,0.03232598304748535,-0.13761724531650543,0.2143586277961731
1718311116493703400,27.891703369140625,0.09022416919469833,0.43344971537590027,0.21717865765094757
1718311116543475500,27.941475341796874,0.18583858013153076,-0.46793392300605774,-0.10701247304677963
1718311116593248300,27.991248291015626,0.06629140675067902,0.9013887047767639,0.055449675768613815
1718311116643020300,28.041020263671875,0.06581230461597443,0.7673019766807556,0.04969698190689087
1718311116692793300,28.09079345703125,0.2798481583595276,0.27502864599227905,-0.15552887320518494
1718311116742566100,28.140566162109376,0.22779054939746857,-0.671563982963562,-0.7188364267349243
1718311116792339200,28.190339111328125,1.0085997581481934,-1.0855209827423096,-1.422332525253296
1718311116842111200,28.240111328125,0.9541669487953186,0.37540292739868164,-2.0110573768615723
1718311116891883000,28.289883056640626,0.18511232733726501,1.6257716417312622,-1.764085054397583
1718311116941656000,28.339656005859375,0.2125905603170395,0.5700080990791321,-1.8130033016204834
1718311116991428000,28.389427978515624,0.37723544239997864,-2.491987705230713,-1.7807633876800537
1718311117041201200,28.439201171875,0.15945038199424744,-0.7289242148399353,-1.6981159448623657
1718311117090973200,28.48897314453125,-0.039455264806747437,-1.2145212888717651,-1.1788830757141113
1718311117140745200,28.5387451171875,0.12010376900434494,-1.624819040298462,-1.5998162031173706
1718311117190518000,28.58851806640625,0.8693913221359253,-1.023861050605774,-2.5330352783203125
1718311117240290000,28.6382900390625,-0.03849466145038605,-1.384746789932251,-0.7782225608825684
1718311117290063000,28.68806298828125,-0.2992527484893799,-0.7676370143890381,-0.7237262725830078
1718311117339835100,28.737835205078124,0.0031321437563747168,-1.4620823860168457,-0.4187101721763611
1718311117389607200,28.787607177734376,-0.24707743525505066,-0.7375224828720093,-0.07233012467622757
1718311117439380200,28.837380126953125,-0.4663573205471039,-0.5208530426025391,0.49633678793907166
1718311117489152300,28.88715234375,-0.47733354568481445,-0.3938586115837097,0.5473379492759705
1718311117538924300,28.93692431640625,-0.7273455262184143,0.1431094855070114,0.8943078517913818
1718311117588697000,28.986697021484375,-0.7014327049255371,0.8863479495048523,1.329367756843567
1718311117638469000,29.03646923828125,-0.8321731090545654,1.6244499683380127,1.7745486497879028
1718311117688241200,29.0862412109375,-0.9465686678886414,1.8806684017181396,1.9931350946426392
1718311117738013200,29.13601318359375,-0.6681690216064453,1.1385740041732788,1.2540053129196167
1718311117787785200,29.18578515625,-1.0148249864578247,-0.3883919417858124,1.6012234687805176
1718311117837558300,29.235558349609374,-0.9185444712638855,1.032528042793274,1.7940304279327393
1718311117887330300,29.285330322265626,-0.8268800973892212,1.1665575504302979,1.3167788982391357
1718311117937102300,29.335102294921874,-0.5010793209075928,1.138634204864502,0.9769454598426819
1718311117986875400,29.38487548828125,-0.13286137580871582,0.21009011566638947,0.8622356653213501
1718311118036647400,29.4346474609375,-0.25860199332237244,1.1988054513931274,0.8386094570159912
1718311118086419500,29.48441943359375,-0.220398411154747,0.3542550206184387,0.9170358180999756
1718311118136192300,29.534192138671877,-0.11904649436473846,0.315866619348526,0.8098528981208801
1718311118185964300,29.58396435546875,-0.01709722727537155,-0.6763244271278381,0.4819519817829132
1718311118235737300,29.6337373046875,0.1156190037727356,-0.39429110288619995,0.17660486698150635
1718311118285509400,29.68350927734375,0.485025554895401,-0.09356004744768143,-0.2814798653125763
1718311118335281400,29.733281494140623,0.4332403838634491,-0.38648858666419983,-1.54486083984375
1718311118385054500,29.783054443359376,0.7946145534515381,0.05293139070272446,-2.28007173538208
1718311118434826500,29.832826416015624,0.5993494391441345,-0.23089659214019775,-2.904391050338745
1718311118484598300,29.882598388671877,0.8632087707519531,0.5707311034202576,-2.9389898777008057
1718311118534371300,29.932371337890626,0.4582067131996155,-0.9762868881225586,-1.9308218955993652
1718311118584143400,29.982143310546874,0.4893744885921478,-1.9134777784347534,-2.5434956550598145
1718311118633915400,30.031915283203126,0.809270977973938,-2.753559112548828,-2.7116286754608154
1718311118683688400,30.0816884765625,0.8249498009681702,-1.7522385120391846,-0.9698870182037354
1718311118733460700,30.131460693359376,0.37921497225761414,-0.3071277141571045,-0.6989090442657471
1718311118783232500,30.181232421875,-0.3748314082622528,-0.632701575756073,-0.20619551837444305
1718311118833005600,30.231005615234373,-0.20320504903793335,-0.29745033383369446,0.1329231560230255
1718311118882777300,30.28077734375,-0.5374293923377991,0.25359979271888733,0.5408632755279541
1718311118932549400,30.33054931640625,-0.6655899882316589,0.5063960552215576,0.8789078593254089
1718311118982322400,30.380322509765627,-0.6996054649353027,1.4228497743606567,1.5227057933807373
1718311119032094500,30.430094482421875,-0.96100914478302,0.8641622066497803,2.2419779300689697
1718311119081866500,30.479866455078124,-0.8570518493652344,1.6291413307189941,2.1580021381378174
1718311119131639600,30.5296396484375,-0.393422394990921,0.48646605014801025,1.2927066087722778
1718311119181411600,30.57941162109375,-0.46984606981277466,1.6943027973175049,1.6413413286209106
1718311119231183600,30.62918359375,-0.36834847927093506,1.6724973917007446,1.4162306785583496
1718311119280956400,30.678956298828126,-0.03513721376657486,0.44177740812301636,1.0221222639083862
1718311119330728400,30.728728515625,-0.394774466753006,-0.43350961804389954,1.1061726808547974
1718311119380501500,30.77850146484375,-0.5216149687767029,0.8662229776382446,1.0585346221923828
1718311119430273500,30.8282734375,-0.17155444622039795,0.8840078115463257,0.6032158136367798
1718311119480045600,30.878045654296876,-0.06300532817840576,0.11815353482961655,0.32640793919563293
1718311119529818600,30.927818603515625,-0.07438821345567703,0.633751392364502,0.08581956475973129
1718311119579590700,30.977590576171874,0.14710795879364014,0.13907133042812347,-0.1705634891986847
1718311119629362700,31.02736279296875,0.10667691379785538,-0.28610366582870483,-0.05764598399400711
1718311119679135500,31.077135498046875,0.09687194973230362,-0.3001939058303833,0.24695412814617157
1718311119728907500,31.126907470703124,0.13007225096225739,-0.3247738182544708,0.18873609602451324
1718311119778679600,31.176679443359376,0.30695781111717224,-0.8967790007591248,-0.6150868535041809
1718311119828452600,31.22645263671875,0.35119956731796265,-0.19157715141773224,-1.7376646995544434
1718311119878224600,31.276224609375,0.7843563556671143,-0.7254554629325867,-2.770249605178833
1718311119927997700,31.325997802734374,1.5357680320739746,0.10355115681886673,-3.166588068008423
1718311119977769700,31.375769775390626,0.8278521299362183,0.0365992896258831,-1.7981719970703125
1718311120027541800,31.425541748046875,-0.23060578107833862,-0.9193450212478638,-1.7287523746490479
1718311120077314600,31.475314453125,0.031241009011864662,-2.465487241744995,-2.4665205478668213
1718311120127086600,31.525086669921876,-0.21079878509044647,-2.818615674972534,-1.6489439010620117
1718311120176858600,31.574858642578125,0.6684395670890808,-2.1654670238494873,-1.0213127136230469
1718311120226631700,31.624631591796874,0.1615137904882431,0.45840218663215637,-0.28088438510894775
1718311120276403700,31.67440380859375,-0.609765887260437,0.10347019881010056,0.615960419178009
1718311120326175500,31.724175537109375,-0.4613383412361145,0.24064908921718597,1.2377057075500488
1718311120375948500,31.773948486328123,-0.6565637588500977,1.6166630983352661,1.47035551071167
1718311120425720600,31.823720458984376,-1.1169729232788086,2.4761862754821777,1.8225263357162476
1718311120475493600,31.87349365234375,-0.9598442912101746,1.8682337999343872,1.8227592706680298
1718311120525265400,31.923265380859377,-0.2057584822177887,1.510399341583252,1.8251875638961792
1718311120575037400,31.973037353515625,0.006308762356638908,-0.1523549109697342,1.8183280229568481
1718311120624810500,32.022810546875,-0.5202146768569946,0.36049479246139526,1.7601624727249146
1718311120674582500,32.07258251953125,-0.7565556168556213,1.1589597463607788,1.7386729717254639
1718311120724355600,32.12235546875,-0.510995090007782,1.415665626525879,1.2249025106430054
1718311120774127400,32.17212744140625,-0.11607521027326584,-0.15955424308776855,0.8387162685394287
1718311120823899400,32.2218994140625,-0.11109615862369537,0.8369697332382202,0.8120343089103699
1718311120873672400,32.27167236328125,0.10157908499240875,0.03261866420507431,0.5516061782836914
1718311120923444500,32.32144458007812,0.12927064299583435,-0.23594488203525543,0.3275222182273865
1718311120973217500,32.37121752929688,0.18969084322452545,-0.16521239280700684,-0.12100019305944443
1718311121022989600,32.42098950195312,0.004929511342197657,-0.6856779456138611,-0.5069031715393066
1718311121072761600,32.47076171875,0.4495285451412201,-0.692263126373291,-1.4852696657180786
1718311121122534400,32.520534423828124,0.8895131349563599,-1.537380576133728,-3.378876209259033
1718311121172306400,32.570306396484376,1.3842411041259766,-0.09936653077602386,-4.058935165405273
1718311121222079500,32.62007958984375,2.3994221687316895,-0.2878459095954895,-3.3734500408172607
1718311121271851500,32.6698515625,0.2958601415157318,0.5011941194534302,-1.4320000410079956
1718311121321623300,32.71962329101562,-0.34203457832336426,-1.3906086683273315,-1.732983112335205
1718311121371396600,32.76939672851562,-0.3618961572647095,-1.7720551490783691,-0.7472614049911499
1718311121421168400,32.81916845703125,0.10428272932767868,-3.7927355766296387,-2.0410118103027344
1718311121470941400,32.86894140625,-0.20810100436210632,-0.4472624659538269,0.4409281313419342
1718311121520713200,32.918713134765625,-0.47090813517570496,0.7776313424110413,0.6596593856811523
1718311121570486500,32.968486572265626,-0.7781434655189514,1.4293124675750732,2.0504488945007324
1718311121620258300,33.01825830078125,-0.9821959137916565,0.756509006023407,1.6144181489944458
1718311121670030300,33.0680302734375,-1.0812582969665527,2.369208335876465,2.347907543182373
1718311121719803600,33.1178037109375,-0.21304330229759216,2.4220545291900635,2.306891441345215
1718311121769575700,33.16757568359375,0.08674048632383347,-0.9231432676315308,1.475224256515503
1718311121819348500,33.21734838867187,-0.8299216628074646,-0.15058843791484833,2.243748188018799
1718311121869120500,33.26712060546875,-1.0757253170013428,1.6959481239318848,1.8893245458602905
1718311121918893600,33.3168935546875,-0.508969783782959,1.0503547191619873,1.352247714996338
1718311121968665600,33.36666552734375,0.020713534206151962,-0.5708781480789185,0.8460646867752075
1718311122018438700,33.41643872070313,0.10178148746490479,0.34393927454948425,0.45286282896995544
1718311122068210700,33.46621069335937,0.17347697913646698,0.11534150689840317,0.6449092030525208
1718311122117982700,33.515982666015624,0.33388397097587585,-0.9510235786437988,-0.05007888004183769
1718311122167755500,33.56575561523437,0.2729383111000061,-0.4785841703414917,-0.5185638070106506
1718311122217527600,33.615527587890625,0.4872482120990753,-1.7898077964782715,-2.23097562789917
1718311122267300600,33.665300537109374,1.278857707977295,-0.9048600792884827,-3.977354049682617
1718311122317072600,33.71507275390625,2.235931396484375,0.04472779110074043,-4.090085506439209
1718311122366845700,33.764845703125,1.7553036212921143,0.8731253743171692,-2.4435830116271973
1718311122416617700,33.81461767578125,-0.29467424750328064,-0.9414508938789368,-1.9091589450836182
1718311122466390500,33.864390625,0.08901376277208328,-1.719405174255371,-1.7714791297912598
1718311122516162600,33.91416259765625,-0.20062178373336792,-1.8376964330673218,-1.8047161102294922
1718311122565935600,33.963935546875,-0.05991393327713013,-2.1549174785614014,0.6267427206039429
1718311122615707600,34.013707763671874,-0.4632597863674164,1.9564955234527588,1.2230093479156494
1718311122665480700,34.06348071289062,-1.3398221731185913,2.5607073307037354,1.8890507221221924
1718311122715252700,34.113252685546875,-0.3239016532897949,1.6106702089309692,2.0965800285339355
1718311122765025500,34.163025634765624,-1.2094227075576782,1.9360363483428955,2.668997049331665
1718311122814797600,34.21279760742188,-0.3001699447631836,1.6253349781036377,2.79833984375
1718311122864570600,34.262570556640625,-0.4347003102302551,-0.6598926782608032,1.4156399965286255
1718311122914342700,34.3123427734375,-0.9644869565963745,1.5818673372268677,2.034518241882324
1718311122964115700,34.36211572265625,-0.43414533138275146,2.707545518875122,1.1489177942276
1718311123013887700,34.4118876953125,-0.06734388321638107,-1.0540218353271484,1.0896168947219849
1718311123063660500,34.46166064453125,0.04680958390235901,0.8307733535766602,0.3975292444229126
1718311123113432600,34.5114326171875,0.13653840124607086,0.10267604142427444,0.35342198610305786
1718311123163205600,34.56120556640625,0.4861376881599426,-0.7222439646720886,-0.6423174142837524
1718311123212977700,34.610977783203126,0.31619685888290405,-0.881523072719574,-0.9527035355567932
1718311123262750700,34.660750732421874,0.34396669268608093,-1.2548389434814453,-2.247497797012329
1718311123312522800,34.71052270507813,1.2078132629394531,-0.9224526882171631,-3.4375247955322266
1718311123362295600,34.760295654296876,1.4845165014266968,1.092522144317627,-3.688715934753418
1718311123412067600,34.81006762695313,0.08286425471305847,-0.9195359945297241,-1.7306989431381226
1718311123461840600,34.85984057617188,-0.11429914832115173,-1.9360376596450806,-2.956014394760132
1718311123511612700,34.90961279296875,-0.05025544762611389,-2.5686230659484863,-1.9534903764724731
1718311123561385700,34.9593857421875,0.033911895006895065,-3.415315866470337,-1.1383466720581055
1718311123611157800,35.00915771484375,-0.6082808971405029,0.40286383032798767,0.6134522557258606
1718311123660930600,35.0589306640625,-1.2247192859649658,1.3318606615066528,1.0839203596115112
1718311123710702600,35.10870263671875,-0.6380406618118286,1.8563069105148315,2.4391531944274902
1718311123760475100,35.15847509765625,-0.6277600526809692,0.9746559858322144,1.6946806907653809
1718311123810248200,35.20824829101562,-1.3332133293151855,2.2311439514160156,2.7515201568603516
1718311123860020200,35.258020263671874,-0.2820678949356079,0.5563865303993225,2.455826997756958
1718311123909793000,35.30779296875,-0.33144211769104004,-1.150857925415039,2.195390224456787
1718311123959565000,35.35756494140625,-1.1888052225112915,2.2280943393707275,1.7881547212600708
1718311124009338000,35.407338134765624,-0.6722502708435059,1.4432908296585083,1.2604455947875977
1718311124059110100,35.457110107421876,-0.13600577414035797,1.2296528816223145,0.5340505838394165
1718311124108883200,35.50688330078125,-0.17284049093723297,0.6845506429672241,0.7430900931358337
1718311124158655200,35.5566552734375,-0.054673630744218826,0.08602303266525269,0.5135000944137573
1718311124208428000,35.606427978515626,0.21155619621276855,-0.16773466765880585,-0.13943272829055786
1718311124258201000,35.656201171875,0.3355705440044403,-0.7582924962043762,-0.8776026368141174
1718311124307973000,35.70597314453125,0.4818819463253021,-0.9100759029388428,-2.1640641689300537
1718311124357746200,35.75574609375,1.0734035968780518,-0.8400736451148987,-3.3940670490264893
1718311124407518200,35.80551831054687,2.0103447437286377,-0.701452374458313,-3.2404706478118896
1718311124457291000,35.855291015625,1.2911747694015503,0.4188095033168793,-2.5141241550445557
1718311124507064000,35.90506396484375,-0.42933085560798645,-1.5611114501953125,-2.0014262199401855
1718311124556836000,35.95483618164062,0.7330774068832397,-2.4042153358459473,-3.998976469039917
1718311124606609200,36.00460913085937,0.08417852967977524,-2.9246597290039062,-0.9318237900733948
1718311124656381200,36.054381103515624,-0.47945475578308105,0.4267593026161194,0.42976468801498413
1718311124706154000,36.10415405273437,-0.4611814618110657,0.10721380263566971,0.14580672979354858
1718311124755927000,36.15392700195312,-0.4555446207523346,0.7033213973045349,1.6407685279846191
1718311124805699000,36.203698974609374,-0.6497622728347778,2.146674633026123,1.7141997814178467
1718311124855472000,36.25347216796875,-1.1663234233856201,2.2483816146850586,2.485769033432007
1718311124905244200,36.303244140625,-0.8777792453765869,2.503610372543335,2.706251859664917
1718311124955017200,36.353017333984376,0.14800810813903809,-0.18590621650218964,1.8286992311477661
1718311125004790300,36.402790283203124,-0.494631290435791,-0.9157971739768982,1.908935785293579
1718311125054562000,36.45256201171875,-1.0883463621139526,1.0862594842910767,1.8031253814697266
1718311125104335400,36.50233544921875,-0.6536752581596375,2.1844024658203125,1.628248691558838
1718311125154108200,36.552108154296874,0.030229806900024414,-0.5002023577690125,0.8265533447265625
1718311125203880200,36.60188012695313,0.04296131432056427,0.796042799949646,0.669607937335968
1718311125253653200,36.6516533203125,0.1059219017624855,0.4680950343608856,0.39645838737487793
1718311125303426300,36.70142626953125,0.15681225061416626,-0.3569014072418213,0.0382765494287014
1718311125353198300,36.7511982421875,0.27365922927856445,0.34904560446739197,-0.13097399473190308
1718311125402971400,36.80097143554688,0.5779877305030823,-0.5171486139297485,-1.1195356845855713
1718311125452744200,36.850744140625,0.4493005871772766,-0.7772179841995239,-1.8170177936553955
1718311125502516200,36.90051611328125,1.2687911987304688,-0.513008177280426,-3.2912838459014893
1718311125552289300,36.95028930664063,1.8861345052719116,-0.3867253363132477,-4.252811431884766
1718311125602062300,37.000062255859376,0.8376272916793823,1.5111393928527832,-2.074842691421509
1718311125651834400,37.04983447265625,-1.009500503540039,-1.0488172769546509,-1.9989415407180786
1718311125701607200,37.09960717773438,0.1460602730512619,-3.1115148067474365,-2.0992465019226074
1718311125751381000,37.14938110351562,-0.2719942331314087,-1.5756230354309082,-0.6884382963180542
1718311125801153000,37.199153076171875,1.3818320035934448,-1.8243443965911865,-2.946882724761963
1718311125850925800,37.24892578125,-0.1547328531742096,-0.736639678478241,-0.5218703746795654
1718311125900699000,37.29869897460937,-0.7853459715843201,0.6573461890220642,0.8959134817123413
1718311125950471000,37.348470947265625,-0.12664955854415894,-0.08067620545625687,0.9846957921981812
1718311126000244000,37.398243896484374,-1.1818437576293945,0.5167339444160461,1.3840903043746948
1718311126050016800,37.44801684570312,-1.0957459211349487,1.8672937154769897,2.129755973815918
1718311126099788800,37.497788818359375,-1.1390715837478638,2.228292942047119,2.4524712562561035
1718311126149561900,37.547561767578124,-0.6188693642616272,1.0493091344833374,2.090273857116699
1718311126199335200,37.597335205078124,-0.40739014744758606,-0.6666161417961121,1.97685968875885
1718311126249107000,37.64710693359375,-0.355129599571228,0.4056929051876068,1.9344080686569214
1718311126298880000,37.6968798828125,-0.40776270627975464,1.5608419179916382,2.021798849105835
1718311126348653000,37.746653076171874,-0.7476792931556702,1.6778329610824585,1.1389074325561523
1718311126398426000,37.79642602539062,-0.08292364329099655,-1.903944492340088,0.8156255483627319
1718311126448198100,37.8461982421875,-0.1426900327205658,3.0793097019195557,0.6348563432693481
1718311126497971000,37.895970947265624,-0.10054285079240799,-0.3261514902114868,0.6381104588508606
1718311126547744000,37.94574389648437,-0.04707377031445503,0.27787768840789795,0.21484573185443878
1718311126597517000,37.99551708984375,0.1454557329416275,0.03243517130613327,-0.22623340785503387
1718311126647289000,38.0452890625,0.14890052378177643,-0.45039698481559753,-0.6055147051811218
1718311126697062000,38.09506176757812,0.488019198179245,-0.26468437910079956,-1.612349033355713
1718311126746835000,38.1448349609375,0.7504215240478516,-0.47678306698799133,-2.226408004760742
1718311126796608000,38.19460791015625,1.1150972843170166,-0.7412847876548767,-2.982806444168091
1718311126846380000,38.244380126953125,1.2800787687301636,0.6648512482643127,-3.2584967613220215
1718311126896153000,38.294153076171874,0.3683775067329407,-0.6996467709541321,-1.7633612155914307
1718311126945926000,38.34392578125,-0.09121939539909363,-1.813257098197937,-2.6889495849609375
1718311126995698000,38.393697998046875,0.5646716356277466,-1.992539882659912,-2.099626064300537
1718311127045471000,38.443470947265624,0.8963486552238464,-1.2709553241729736,-2.939302682876587
1718311127095244300,38.493244384765624,0.13418257236480713,-1.986641764640808,-1.2570911645889282
1718311127145017000,38.54301708984375,-0.4073328971862793,0.8065926432609558,0.7419758439064026
1718311127194790100,38.5927900390625,-0.789910614490509,-0.678959846496582,1.6689729690551758
1718311127244562200,38.642562255859374,-1.2254599332809448,0.7746903896331787,1.7360225915908813
1718311127294335200,38.69233520507812,-1.3716273307800293,2.315392017364502,2.4636545181274414
1718311127344108000,38.74210791015625,-1.4891014099121094,2.28479266166687,2.8328230381011963
1718311127393881000,38.79188110351563,-0.26980456709861755,1.8747780323028564,2.487804651260376
1718311127443653000,38.84165307617187,0.01461702585220337,-1.593503713607788,1.2315263748168945
1718311127493426200,38.89142626953125,-1.2025452852249146,1.6190844774246216,2.476799488067627
1718311127543199000,38.94119897460938,-0.6363412737846375,2.2163102626800537,1.7251869440078735
1718311127592972000,38.99097192382813,-0.36202213168144226,1.3927488327026367,1.5142430067062378
1718311127642744000,39.040744140625,0.26974546909332275,0.5627304315567017,1.1286522150039673
1718311127692517000,39.09051708984375,0.21955606341362,0.46857866644859314,0.6443683505058289
1718311127742290000,39.1402900390625,0.1562575101852417,0.004140949342399836,-0.1116892471909523
1718311127792063000,39.19006298828125,0.44374069571495056,0.3973630666732788,-0.7560855150222778
1718311127841836300,39.23983618164063,0.5894209146499634,-0.4589284360408783,-1.7389951944351196
1718311127891609000,39.289609130859375,0.6664240956306458,0.056525327265262604,-2.4312732219696045
1718311127941381000,39.33938110351563,0.7245563864707947,-0.31318002939224243,-3.1410579681396484
1718311127991154200,39.389154296875,0.5110241174697876,0.17438964545726776,-2.957671880722046
1718311128040927200,39.43892724609375,-0.48934173583984375,-0.2124909609556198,-1.7707160711288452
1718311128090700000,39.488699951171874,0.15642262995243073,-2.7868974208831787,-3.4867706298828125
1718311128140473000,39.53847314453125,-0.2294451743364334,-1.7872183322906494,-1.853569746017456
1718311128190245000,39.5882451171875,0.6655479073524475,-1.0515611171722412,-3.321743965148926
1718311128240018200,39.63801806640625,-0.21279962360858917,-3.281883716583252,-0.46879810094833374
1718311128289791200,39.687791259765625,-0.5175004005432129,-0.396073579788208,0.32111385464668274
1718311128339564000,39.73756396484375,-0.6870007514953613,0.11901826411485672,1.0822646617889404
1718311128389337000,39.78733715820312,-1.0429668426513672,0.8581967353820801,1.5933094024658203
1718311128439110100,39.83711010742188,-1.327445387840271,3.028639078140259,2.943106174468994
1718311128488882200,39.886882080078124,-0.6745060086250305,2.775088310241699,2.862800359725952
1718311128538655000,39.93665502929687,-0.25297099351882935,0.7602680325508118,2.708632230758667
1718311128588428000,39.98642797851563,-0.41432181000709534,-1.451185703277588,2.323777198791504
1718311128638201000,40.036201171875,-0.984106719493866,1.6180157661437988,2.6955339908599854
1718311128687974100,40.08597412109375,-0.898395836353302,2.6910831928253174,1.763472557067871
1718311128737747500,40.13574755859375,-0.010661965236067772,0.004172374494373798,0.8796383738517761
1718311128787519200,40.18551928710937,-0.11548904329538345,0.7623562216758728,0.5401338338851929
1718311128837292500,40.23529248046875,-0.03248284012079239,0.634427547454834,0.6478474736213684
1718311128887065300,40.2850654296875,0.30601078271865845,-0.49543851613998413,-0.05618257820606232
1718311128936838400,40.33483837890625,0.29451099038124084,-0.41171565651893616,-0.7520026564598083
1718311128986611500,40.38461157226563,0.13050660490989685,-0.4843749403953552,-1.5108251571655273
1718311129036384300,40.43438427734375,0.47073423862457275,-0.7454683184623718,-3.286376714706421
1718311129086157300,40.4841572265625,0.9517173767089844,-0.4226340651512146,-3.6585264205932617
1718311129135929300,40.533929443359376,1.6027276515960693,0.07749851793050766,-3.910266399383545
1718311129185702400,40.583702392578125,0.0773075744509697,-1.8422703742980957,-2.6237316131591797
1718311129235475200,40.63347509765625,0.37915343046188354,-2.2697856426239014,-3.256093740463257
1718311129285248300,40.68324829101562,0.4702109098434448,-1.1542028188705444,-1.9183276891708374
1718311129335021300,40.73302124023437,0.4567909836769104,-2.6569533348083496,-1.6266590356826782
1718311129384794000,40.78279418945313,-0.24404887855052948,0.33946195244789124,0.460295706987381
1718311129434567200,40.83256713867188,-0.5784939527511597,0.6860172152519226,0.9059067368507385
1718311129484340500,40.88234057617188,-0.9683895707130432,1.1577389240264893,2.197955369949341
1718311129534112300,40.9321123046875,-1.2347756624221802,1.9168131351470947,2.4517879486083984
1718311129583885300,40.98188525390625,-1.249651551246643,3.1109273433685303,3.238851547241211
1718311129633658400,41.03165844726563,-0.19970113039016724,2.1975347995758057,2.984889030456543
1718311129683431400,41.081431396484376,-0.05511411651968956,-1.811320185661316,2.3203892707824707
1718311129733203500,41.13120336914063,-0.8133829236030579,0.5486149191856384,2.618507146835327
1718311129782976500,41.1809765625,-0.5637733340263367,1.7983607053756714,1.566980004310608
1718311129832749300,41.230749267578126,-0.37158581614494324,1.6263797283172607,1.4771995544433594
1718311129882522400,41.2805224609375,-0.3384041488170624,-0.02804734744131565,1.1054984331130981
1718311129932295700,41.330295654296876,-0.09809940308332443,0.15522047877311707,0.7325165867805481
1718311129982068500,41.380068359375,0.265509694814682,-0.27283498644828796,0.28495582938194275
1718311130031840500,41.42984057617188,0.24613414704799652,-0.37293335795402527,0.09569137543439865
1718311130081613600,41.479613525390626,0.22434575855731964,-0.4363919496536255,-0.3982703983783722
1718311130131386600,41.52938671875,0.38197267055511475,-0.2509762942790985,-1.2497285604476929
1718311130181159400,41.57915942382812,0.508612871170044,-1.035361886024475,-2.333986282348633
1718311130230932500,41.62893237304687,1.090214729309082,-1.4869762659072876,-4.111778259277344
1718311130280705500,41.67870556640625,1.921878457069397,-0.07571100443601608,-3.840975522994995
1718311130330478300,41.72847827148438,0.6877541542053223,-1.6125013828277588,-2.3418192863464355
1718311130380251400,41.77825146484375,0.5099977254867554,-1.373910903930664,-3.5256595611572266
1718311130430024400,41.8280244140625,0.6500089168548584,-1.7719560861587524,-2.8402204513549805
1718311130479797200,41.87779736328125,-0.09949462860822678,-2.215759754180908,-1.3899149894714355
1718311130529570300,41.9275703125,-0.08961297571659088,0.27821698784828186,0.29864048957824707
1718311130579343600,41.97734350585937,-0.6949723958969116,-0.06980118900537491,0.7775415778160095
1718311130629116400,42.02711645507812,-0.6676409244537354,1.068460464477539,1.4903078079223633
1718311130678888400,42.076888427734374,-0.9231653213500977,1.6695127487182617,2.0642917156219482
1718311130728661500,42.12666162109375,-1.388091802597046,2.43367600440979,2.855534553527832
1718311130778434600,42.1764345703125,-0.5989899039268494,2.7537972927093506,3.168975591659546
1718311130828207600,42.22620751953125,-0.3855719268321991,0.12074772268533707,2.735630512237549
1718311130877980400,42.27598046875,-0.5515129566192627,-1.587740182876587,1.9079018831253052
1718311130927753500,42.32575341796875,-0.9263483285903931,1.6681827306747437,2.461930274963379
1718311130977526500,42.37552661132813,-0.6701738238334656,3.002065658569336,1.3559035062789917
1718311131027299300,42.42529931640625,-0.12514007091522217,-0.9915268421173096,0.8935754895210266
1718311131077072400,42.475072265625,-0.2999177575111389,0.9261360764503479,0.4984374940395355
1718311131126845400,42.52484545898437,0.18254370987415314,-0.31764668226242065,0.9298890233039856
1718311131176618200,42.5746181640625,0.12968848645687103,-0.05511864647269249,0.5163384675979614
1718311131226391600,42.6243916015625,0.28264766931533813,-0.5336647033691406,-0.7945567965507507
1718311131276164600,42.67416455078125,0.3856203854084015,-0.8335702419281006,-2.542998790740967
1718311131325937400,42.7239375,0.6984459757804871,-0.5056900978088379,-3.825826406478882
1718311131375710500,42.77371044921875,1.5832791328430176,0.8130244612693787,-3.52311635017395
1718311131425483500,42.8234833984375,0.7993661761283875,0.3886265754699707,-2.208314895629883
1718311131475256300,42.87325634765625,0.11249511688947678,-1.6066608428955078,-4.00728702545166
1718311131525029400,42.923029296875,0.9837914109230042,-2.6978354454040527,-3.8531789779663086
1718311131574802400,42.97280249023437,0.5299882292747498,-2.2265594005584717,-2.255500316619873
1718311131624575500,43.02257543945313,0.3172623813152313,-1.0898795127868652,-0.9472192525863647
1718311131674347500,43.07234741210937,-0.3029327094554901,-0.7765532732009888,0.12494806200265884
1718311131724120300,43.12212036132812,-1.0752853155136108,0.1706063598394394,0.7535936236381531
1718311131773893400,43.17189331054688,-0.9058158993721008,1.3577502965927124,1.901045322418213
1718311131823666400,43.22166650390625,-1.363816738128662,2.0898330211639404,2.570891857147217
1718311131873439200,43.271439208984376,-1.2446459531784058,3.1042397022247314,3.190157651901245
1718311131923212300,43.32121240234375,-0.2610566318035126,2.8558108806610107,3.2579562664031982
1718311131972985300,43.3709853515625,-0.0320865623652935,-1.4146450757980347,2.273181676864624
1718311132022758100,43.42075805664062,-0.8386334180831909,0.5448287129402161,2.659926414489746
1718311132072531200,43.47053125,-0.43837201595306396,2.318544387817383,1.5586915016174316
1718311132122304300,43.52030419921875,-0.053427804261446,0.844161331653595,0.943311333656311
1718311132172077300,43.57007739257813,0.019422966986894608,0.4574993848800659,0.6897733807563782
1718311132221850400,43.61985034179688,0.06970078498125076,0.6080595850944519,0.4669695794582367
1718311132271623400,43.66962353515625,0.14857083559036255,-0.44402989745140076,0.5936740040779114
1718311132321396200,43.719396240234374,0.24517087638378143,-0.7952070832252502,-0.13184857368469238
1718311132371169300,43.76916918945312,0.2365717887878418,-1.30344820022583,-1.2311210632324219
1718311132420942300,43.8189423828125,0.5132095217704773,-1.4355233907699585,-2.980679750442505
1718311132470715400,43.86871533203125,1.0328418016433716,-0.7253787517547607,-4.083996772766113
1718311132520488200,43.91848828125,1.73023521900177,0.7917950749397278,-4.036993026733398
1718311132570261200,43.96826123046875,-0.15071120858192444,-1.3617815971374512,-2.0938003063201904
1718311132620034300,44.01803442382813,0.11481952667236328,-1.9411981105804443,-3.907804012298584
1718311132669807400,44.067807373046875,0.9321481585502625,-3.2774038314819336,-3.1792361736297607
1718311132719580400,44.117580322265624,0.5320726633071899,-0.4233400821685791,-1.132653832435608
1718311132769353500,44.167353515625,-0.3418657183647156,0.406313955783844,0.3048195540904999
1718311132819126300,44.21712622070312,-0.6864579916000366,0.8453014492988586,0.8818362951278687
1718311132868899600,44.26689965820312,-0.9106729626655579,1.691666841506958,1.98420250415802
1718311132918672600,44.31667260742187,-1.2429835796356201,2.124345541000366,2.5493831634521484
1718311132968445400,44.36644555664063,-0.8018831014633179,3.346820831298828,3.1444015502929688
1718311133018218500,44.416218505859376,-0.16792242228984833,2.1724462509155273,3.106816530227661
1718311133067991600,44.465991455078125,-0.49101340770721436,-1.0898357629776,2.480989456176758
1718311133117764400,44.515764404296874,-0.9534843564033508,1.0718860626220703,2.613539934158325
1718311133167537400,44.56553735351562,-0.4257079064846039,2.1551082134246826,1.7476056814193726
1718311133217310500,44.615310546875,0.08688563108444214,1.075395941734314,1.1258447170257568
1718311133267083500,44.66508349609375,0.11678547412157059,0.4831877052783966,0.6977745890617371
1718311133316856300,44.71485620117188,0.24361932277679443,0.13500867784023285,0.24575570225715637
1718311133366629600,44.76462963867188,0.29819759726524353,-0.2900882959365845,0.07684524357318878
1718311133416402700,44.814402587890626,0.2566560208797455,-0.9873014688491821,-0.30527815222740173
1718311133466175500,44.864175537109375,0.2852141559123993,-0.9609752893447876,-1.3021944761276245
1718311133515948500,44.913948486328124,0.5643190145492554,-0.5246310234069824,-2.4192898273468018
1718311133565721600,44.9637216796875,0.5306463241577148,0.5410661697387695,-2.7627360820770264
1718311133615494400,45.01349438476562,0.764802873134613,0.8398933410644531,-3.248612880706787
1718311133665267500,45.06326733398438,0.0227348729968071,-0.5702477693557739,-2.538710832595825
1718311133715040500,45.11304052734375,-0.040582578629255295,-3.1221752166748047,-4.541799545288086
1718311133764813600,45.1628134765625,0.833028256893158,-2.89831280708313,-2.9769532680511475
1718311133814586600,45.212586669921876,0.5235287547111511,-1.579435110092163,-1.6753346920013428
1718311133864358700,45.26235864257813,0.04255970939993858,-0.9754045605659485,-0.6058118939399719
1718311133914131700,45.31213159179688,-0.6286527514457703,-0.21972917020320892,0.2651248872280121
1718311133963904500,45.361904541015626,-0.6344975829124451,0.6930354833602905,1.154537320137024
1718311134013677600,45.411677490234375,-0.9146482944488525,1.4611092805862427,1.9717013835906982
1718311134063450600,45.46145068359375,-1.3598052263259888,2.080413579940796,2.6139492988586426
1718311134113223700,45.5112236328125,-0.9388473629951477,2.658315896987915,3.1896936893463135
1718311134162996500,45.56099658203125,-0.39827972650527954,1.7350670099258423,3.3043625354766846
1718311134212769500,45.61076953125,-0.3482501208782196,-1.3900249004364014,2.4728174209594727
1718311134262542800,45.66054296875,-0.3942367732524872,0.2740967869758606,2.404171943664551
1718311134312315600,45.71031567382813,-0.2023368626832962,2.517526865005493,1.3063551187515259
1718311134362088700,45.760088623046876,-0.17386260628700256,0.625460684299469,0.9665604829788208
1718311134411861800,45.80986181640625,-0.2548149824142456,0.7376748323440552,0.7707257270812988
1718311134461634600,45.859634521484374,0.20071712136268616,0.08681798726320267,0.671481192111969
1718311134511407600,45.90940771484375,0.2735218107700348,-0.12931831181049347,0.4867699146270752
1718311134561180700,45.9591806640625,0.18375971913337708,-0.3364163637161255,0.09030912071466446
1718311134610953500,46.00895336914063,0.25323837995529175,-0.5377238988876343,-0.38070952892303467
1718311134660726500,46.0587265625,0.29854676127433777,-0.8590103387832642,-1.1067426204681396
1718311134710499600,46.10849951171875,0.32917389273643494,-0.7588376402854919,-2.3282382488250732
1718311134760272400,46.1582724609375,0.7862998843193054,-0.2571638822555542,-3.220212697982788
1718311134810045200,46.20804516601562,1.487703800201416,0.31810739636421204,-3.7544355392456055
1718311134859818200,46.257818359375,0.7558775544166565,-0.06385168433189392,-2.824385404586792
1718311134909591600,46.30759155273437,-0.030843399465084076,-2.3337342739105225,-3.26366925239563
1718311134959364400,46.3573642578125,0.9772528409957886,-1.3157129287719727,-3.620779037475586
1718311135009137400,46.40713745117188,0.5023043751716614,-2.313032388687134,-2.487022876739502
1718311135058910500,46.456910400390626,-0.07314185798168182,-0.7430541515350342,-0.7216801643371582
1718311135108683300,46.506683349609375,-0.3000447750091553,-0.37380021810531616,0.3430343270301819
1718311135158456300,46.556456298828124,-0.8775019645690918,-0.010757040232419968,0.8263155221939087
1718311135208229400,46.6062294921875,-1.003825306892395,0.8678703904151917,1.857231855392456
1718311135258002200,46.65600219726562,-1.2313791513442993,1.5028274059295654,2.304792881011963
1718311135307775200,46.70577514648438,-1.623374342918396,2.592048168182373,3.0142383575439453
1718311135357548300,46.75554833984375,-0.6003449559211731,2.8117425441741943,3.2683987617492676
1718311135407321000,46.805321044921875,-0.2753191888332367,-0.26327183842658997,2.5559186935424805
1718311135457094400,46.855094482421876,-0.29816192388534546,-1.174394965171814,2.2154154777526855
1718311135506867500,46.904867431640625,-0.4333468973636627,1.7043367624282837,1.8232195377349854
1718311135556640500,46.954640625,-0.16249783337116241,0.7898746728897095,1.3432062864303589
1718311135606413300,47.00441333007812,-0.5358453392982483,1.1673146486282349,1.1646722555160522
1718311135656186400,47.05418627929687,0.22948431968688965,0.06998494267463684,0.6128514409065247
1718311135705959400,47.10395947265625,0.13373196125030518,0.7494683861732483,0.7501254081726074
1718311135755732700,47.15373266601563,0.2993491590023041,-0.0024351945612579584,0.32074233889579773
1718311135805505800,47.203505859375,0.23213256895542145,-0.1543930321931839,0.11659372597932816
1718311135855278800,47.25327880859375,0.2991110682487488,-0.6181321740150452,-0.4121726453304291
1718311135905051600,47.3030517578125,0.35654425621032715,-0.775860607624054,-1.2416809797286987
1718311135954825000,47.352824951171876,0.426037073135376,-0.8863484859466553,-2.4332473278045654
1718311136004598000,47.402597900390624,0.8631981611251831,-0.110349141061306,-3.6927733421325684
1718311136054370800,47.45237084960937,1.5046050548553467,1.1146039962768555,-3.9764156341552734
1718311136104144000,47.50214379882812,0.21024484932422638,-0.7097151279449463,-2.6261448860168457
1718311136153917000,47.5519169921875,-0.40713074803352356,-1.4277523756027222,-3.2574360370635986
1718311136203689700,47.60168969726563,0.5935429930686951,-2.2731213569641113,-2.8939802646636963
1718311136253462800,47.651462890625,0.693670928478241,-2.931166172027588,-2.559908866882324
1718311136303235800,47.70123583984375,0.21619968116283417,-1.254578709602356,-0.503002941608429
1718311136353008600,47.75100854492187,-0.15258555114269257,-0.6892495155334473,-0.3693479597568512
1718311136402781700,47.80078173828125,-0.5088791847229004,-0.2969832122325897,0.7281450033187866
1718311136452554800,47.8505546875,-0.8086286187171936,1.0975710153579712,1.1839826107025146
1718311136502327800,47.90032788085937,-1.4231107234954834,2.0031778812408447,1.9720356464385986
1718311136552100900,47.95010083007813,-0.9260287880897522,2.0488193035125732,2.5009329319000244
1718311136601874000,47.9998740234375,-0.5104070901870728,1.9911017417907715,2.9933736324310303
1718311136651647000,48.04964697265625,-0.189708411693573,2.484544277191162,3.490006446838379
1718311136701419800,48.099419677734375,-0.38823720812797546,-1.1560661792755127,2.6101181507110596
1718311136751192600,48.14919262695312,-0.49090686440467834,-0.5732504725456238,2.2563376426696777
1718311136800965600,48.19896557617187,-0.7751114368438721,2.064427137374878,2.150578022003174
1718311136850738400,48.24873852539063,-0.034510038793087006,1.0679636001586914,1.1093230247497559
1718311136900511500,48.29851147460938,-0.13115055859088898,0.4388125240802765,0.7626768946647644
1718311136950284500,48.348284423828126,0.16497297585010529,0.2140374630689621,0.8137810826301575
1718311137000057300,48.398057373046875,0.14696946740150452,-0.0946897566318512,0.7224926948547363
1718311137049830700,48.44783056640625,0.24553360044956207,-0.3475065529346466,0.04639706015586853
1718311137099603700,48.497603759765624,0.400896817445755,-0.6099182367324829,-0.6913409233093262
1718311137149376500,48.54737646484375,0.392866849899292,-1.2308720350265503,-1.7250330448150635
1718311137199149600,48.59714965820312,0.4992731809616089,-1.2211337089538574,-3.0503361225128174
1718311137248922600,48.64692260742188,1.1010322570800781,-0.14927630126476288,-3.8917269706726074
1718311137298695700,48.69669580078125,1.4694452285766602,-0.13941967487335205,-3.6971254348754883
1718311137348468500,48.746468505859376,0.3000487685203552,-2.0889105796813965,-3.0915207862854004
1718311137398241500,48.796241455078125,1.222979187965393,-1.1662653684616089,-3.712553024291992
1718311137448014600,48.8460146484375,0.9028949737548828,-1.7157167196273804,-3.1707401275634766
1718311137497787400,48.89578735351562,0.026029469445347786,-1.3459028005599976,-1.5874426364898682
1718311137547560400,48.945560546875,-0.28427568078041077,-0.7657037973403931,-0.1251232922077179
1718311137597333800,48.99533374023437,-0.5539963841438293,-0.21602097153663635,0.49115002155303955
1718311137647106600,49.0451064453125,-0.49293938279151917,0.7428216934204102,1.4551339149475098
1718311137696879600,49.09487963867188,-1.0554059743881226,1.7682489156723022,2.367520332336426
1718311137746652400,49.14465234375,-1.6953965425491333,2.577087640762329,3.129230499267578
1718311137796425200,49.19442529296875,-1.2159945964813232,3.1215121746063232,3.624335765838623
1718311137846198500,49.24419848632812,-0.28113633394241333,1.5113694667816162,3.1418814659118652
1718311137895971600,49.2939716796875,0.045522477477788925,-1.6464221477508545,2.7048375606536865
1718311137945744600,49.34374462890625,-0.5378509163856506,1.9888266324996948,2.3562309741973877
1718311137995517400,49.39351733398438,-0.6227114796638489,1.587430715560913,1.776924967765808
1718311138045290500,49.44329052734375,-0.35790061950683594,0.5732582211494446,1.5827959775924683
1718311138095063600,49.4930634765625,-0.25667092204093933,0.24932247400283813,0.7562493085861206
1718311138144836400,49.54283642578125,0.32165074348449707,-0.3554430603981018,0.5016327500343323
1718311138194608400,49.5926083984375,0.14834019541740417,0.09999823570251465,0.6437563300132751
1718311138244381400,49.64238134765625,0.34556058049201965,-0.6834821701049805,-0.28684109449386597
1718311138294154500,49.692154541015626,0.40563273429870605,-0.880551815032959,-1.1617584228515625
1718311138343927300,49.74192724609375,0.4349232316017151,-0.9730937480926514,-2.443207025527954
1718311138393700400,49.79170043945312,0.8900073766708374,-1.0341442823410034,-4.242325782775879
1718311138443473400,49.84147338867187,1.7775719165802002,1.2486491203308105,-4.078845024108887
1718311138493246500,49.89124658203125,0.7576144337654114,-0.7495333552360535,-2.5609476566314697
1718311138543019500,49.94101953125,-0.1975591480731964,-2.165648937225342,-3.6991090774536133
1718311138592792600,49.99079248046875,1.326925277709961,-1.5440062284469604,-3.7667901515960693
1718311138642565400,50.0405654296875,0.6277565956115723,-3.2987663745880127,-2.591063976287842
1718311138692338400,50.09033837890625,-0.0454321950674057,-1.1363588571548462,-0.8461885452270508
1718311138742112000,50.140112060546876,-0.5012937188148499,-0.6601113677024841,0.3446173071861267
1718311138791884800,50.189884765625,-1.0558762550354004,-0.10119159519672394,1.13025963306427
1718311138841657900,50.239657958984374,-1.2010326385498047,1.141892671585083,2.0279691219329834
1718311138891431000,50.28943090820312,-1.6680147647857666,2.262704849243164,2.718662738800049
1718311138941203700,50.33920361328125,-1.498907208442688,3.1473288536071777,3.607820987701416
1718311138990977000,50.38897705078125,-0.782145619392395,2.590493679046631,3.639937162399292
1718311139040750000,50.43875,-0.9071067571640015,-1.6146748065948486,2.4832849502563477
1718311139090523000,50.48852294921875,-0.9709312915802002,0.6692318916320801,2.9162099361419678
1718311139140296000,50.5382958984375,-0.6005612015724182,3.387352228164673,1.8599740266799927
1718311139190069000,50.588069091796875,0.016686301678419113,-0.01594940572977066,1.0002853870391846
1718311139239842000,50.637842041015624,-0.34254297614097595,0.45892655849456787,1.0497472286224365
1718311139289614800,50.68761474609375,0.14113982021808624,0.10000649094581604,1.024293303489685
1718311139339388000,50.73738793945312,0.21673551201820374,-0.4436751902103424,0.18370617926120758
1718311139389161000,50.78716088867188,0.337799608707428,-0.8104134798049927,-0.440944105386734
1718311139438933800,50.836933837890626,0.7244756817817688,-1.6645952463150024,-1.932498812675476
1718311139488705800,50.88670581054687,0.8855559229850769,-2.115121841430664,-4.524914264678955
1718311139538478800,50.93647875976563,3.2636711597442627,-0.2383798062801361,-4.833584308624268
1718311139588252000,50.986251953125,2.4781103134155273,-0.2606757879257202,-2.475212812423706
1718311139638025000,51.03602490234375,0.16726195812225342,-0.39043939113616943,-3.9378809928894043
1718311139687798000,51.085798095703126,1.5374780893325806,-2.1169300079345703,-4.000731945037842
1718311139737571000,51.135571044921875,1.0559396743774414,-1.816978931427002,-2.0868875980377197
1718311139787344000,51.18534375,0.0010495517635717988,-1.0745106935501099,-0.8541167974472046
1718311139837117000,51.23511694335937,-0.734993577003479,0.10303743183612823,0.4517328441143036
1718311139886890000,51.28488989257813,-1.159853458404541,0.7450459599494934,1.541872262954712
1718311139936663000,51.3346630859375,-1.2740106582641602,1.3537044525146484,2.927330732345581
1718311139986435800,51.384435791015626,-1.5189250707626343,2.056504964828491,3.7158260345458984
1718311140036209000,51.434208984375,-1.4923532009124756,2.989194393157959,4.359553813934326
1718311140085982200,51.483982177734376,-1.8929133415222168,0.120051309466362,3.5644400119781494
1718311140135755000,51.533755126953125,-1.3926314115524292,-1.0594673156738281,3.2414772510528564
1718311140185528000,51.58352807617187,-0.6958810687065125,3.7247161865234375,1.6363846063613892
1718311140235301000,51.63330102539062,-0.4180465042591095,2.789918899536133,1.2803030014038086
1718311140285074000,51.68307397460938,0.009863549843430519,-0.21870598196983337,0.9887598156929016
1718311140334847000,51.73284692382813,-0.41936612129211426,1.154899001121521,0.5415916442871094
1718311140384619000,51.78261889648437,0.08807792514562607,-0.3177790343761444,0.3780439794063568
1718311140434392000,51.83239208984375,0.42128437757492065,-0.3650487959384918,-0.38954615592956543
1718311140484164900,51.88216479492188,0.5247460603713989,-1.4205029010772705,-1.4452074766159058
1718311140533938000,51.93193798828125,0.6435294151306152,-1.6766459941864014,-2.8030660152435303
1718311140583711000,51.9817109375,1.2113478183746338,-1.0020763874053955,-5.03718376159668
1718311140633483800,52.03148388671875,2.704066753387451,0.10657038539648056,-4.5062994956970215
1718311140683257000,52.081257080078124,0.9270261526107788,-2.1420328617095947,-4.295928001403809
1718311140733030000,52.13102978515625,0.7195850610733032,-1.9913238286972046,-3.3888866901397705
1718311140782803000,52.18080297851562,0.8336628675460815,-1.1064800024032593,-2.8517470359802246
1718311140832575700,52.23057568359375,0.20908717811107635,-2.468736171722412,-1.5930038690567017
1718311140882348800,52.28034887695313,-0.7874788641929626,-0.41786861419677734,0.7312542200088501
1718311140932121900,52.330121826171876,-0.8554520606994629,0.9612749218940735,1.476180076599121
1718311140981894700,52.379894775390625,-2.0557899475097656,2.2966551780700684,3.1286067962646484
1718311141031666700,52.42966674804688,-1.6040879487991333,2.830683708190918,3.5916059017181396
1718311141081439700,52.479439697265626,-0.8613219261169434,3.297398805618286,4.180263042449951
1718311141131212800,52.529212890625,-1.064440131187439,0.3381679356098175,3.243541955947876
1718311141180985900,52.57898583984375,-0.598560631275177,-0.6762508749961853,2.8097517490386963
1718311141230759000,52.628759033203124,-0.9003173112869263,1.4735238552093506,2.180082321166992
1718311141280532000,52.67853198242187,-0.6822917461395264,3.1605281829833984,1.388548493385315
1718311141330304800,52.7283046875,0.047808535397052765,-1.4511466026306152,0.9322379231452942
1718311141380077800,52.77807788085938,-0.29755765199661255,1.4100042581558228,0.9418761730194092
1718311141429851000,52.82785083007813,0.037877608090639114,-0.24720633029937744,-0.15486308932304382
1718311141479623700,52.877623779296876,0.38077983260154724,-0.24329040944576263,-0.4408242702484131
1718311141529396700,52.927396728515625,0.5730797648429871,-1.3379555940628052,-1.8245782852172852
1718311141579169800,52.97716967773437,0.3573077917098999,-1.4009768962860107,-2.8051798343658447
1718311141628942800,53.02694287109375,1.3691293001174927,-0.6963527202606201,-4.735454559326172
1718311141678715000,53.07671484375,2.80800461769104,-0.09092111885547638,-4.1873321533203125
1718311141728487700,53.12648779296875,0.46220651268959045,-1.3586499691009521,-3.787100076675415
1718311141778261000,53.176260986328124,1.4179617166519165,-1.9934996366500854,-4.4852447509765625
1718311141828034000,53.22603393554687,0.776759147644043,-2.2251157760620117,-2.129643201828003
1718311141877806800,53.27580688476562,0.002812031889334321,-1.3773424625396729,-1.1365073919296265
1718311141927580000,53.32557983398438,-0.5051928758621216,-0.4160699248313904,0.3267240524291992
1718311141977353200,53.37535327148437,-0.8560036420822144,1.2848042249679565,1.5748012065887451
1718311142027126000,53.4251259765625,-1.489652156829834,2.3627636432647705,3.2490439414978027
1718311142076899000,53.474899169921876,-1.4375487565994263,3.1052467823028564,4.052234172821045
1718311142126672100,53.524672119140625,-1.2462427616119385,2.895819902420044,3.928881883621216
1718311142176445000,53.57444482421875,-1.691071629524231,0.4914674758911133,3.784463882446289
1718311142226218000,53.62421801757812,-0.507481575012207,0.4094090759754181,2.4699318408966064
1718311142275991000,53.67399096679687,-0.45687592029571533,0.6906641721725464,1.690549612045288
1718311142325763000,53.72376318359375,-0.21024644374847412,4.611294269561768,0.9849522709846497
1718311142375535900,53.77353588867187,0.2255396544933319,-2.44083309173584,0.8221908211708069
1718311142425309000,53.82330883789062,-0.3481214940547943,1.3971459865570068,0.40188005566596985
1718311142475082000,53.87308203125,0.28216618299484253,-0.21387234330177307,0.28307539224624634
1718311142524854800,53.92285473632813,0.39010170102119446,-0.4895167052745819,-0.2294134795665741
1718311142574627800,53.9726279296875,0.5358554124832153,-1.568549394607544,-1.129279613494873
1718311142624401200,54.022401123046876,0.699581503868103,-2.029815912246704,-2.517777681350708
1718311142674174000,54.072174072265625,1.3134491443634033,-1.098339557647705,-4.402075290679932
1718311142723947000,54.121947021484374,2.391176462173462,-0.026192720979452133,-4.26416540145874
1718311142773719800,54.1717197265625,0.554410457611084,-1.0294300317764282,-3.4915947914123535
1718311142823492900,54.22149291992187,0.412551611661911,-2.4131338596343994,-4.19005823135376
1718311142873265700,54.271265625,1.2537931203842163,-1.8547574281692505,-3.476264715194702
1718311142923038700,54.321038818359376,0.37985891103744507,-2.079953193664551,-1.5176116228103638
1718311142972810800,54.37081079101562,-0.4566466212272644,-0.33101627230644226,0.039746079593896866
1718311143022583800,54.42058374023438,-1.0682588815689087,0.14647120237350464,1.398194432258606
1718311143072356600,54.470356689453126,-1.4646022319793701,1.6465275287628174,2.7353262901306152
1718311143122130000,54.5201298828125,-1.7105334997177124,2.7113234996795654,3.7835168838500977
1718311143171903000,54.569903076171876,-1.2841589450836182,3.2667152881622314,4.24981164932251
1718311143221675800,54.61967578125,-1.244271159172058,0.7973278164863586,3.5973353385925293
1718311143271448800,54.66944873046875,-1.1994379758834839,-1.122549295425415,2.825749397277832
1718311143321222000,54.71922192382812,-1.1609067916870117,2.2135884761810303,2.1242449283599854
1718311143370994700,54.76899462890625,-0.28690847754478455,3.496741771697998,1.2775095701217651
1718311143420767700,54.81876782226563,-0.22218114137649536,-2.6998093128204346,0.9781090021133423
1718311143470540800,54.868540771484376,-0.457496702671051,2.476827621459961,0.7214165329933167
1718311143520313900,54.91831396484375,0.0936545878648758,-0.18640317022800446,0.08472447097301483
1718311143570086700,54.968086669921874,0.14247964322566986,-0.051169443875551224,-0.1720479279756546
1718311143619860000,55.01785986328125,0.5196911096572876,-1.1470022201538086,-1.058218002319336
1718311143669633000,55.067633056640624,0.4234631061553955,-1.5873653888702393,-2.327167272567749
1718311143719405000,55.117405029296876,0.9915395975112915,-1.4359652996063232,-4.0033721923828125
1718311143769178000,55.16717822265625,2.7181332111358643,-1.811533808708191,-5.268374443054199
1718311143818951200,55.216951171875,3.0535852909088135,-0.5516152381896973,-4.566040992736816
1718311143868724200,55.26672412109375,-0.08090150356292725,-1.3547327518463135,-3.6114346981048584
1718311143918497000,55.3164970703125,0.9067525267601013,-1.8240759372711182,-2.5782573223114014
1718311143968270000,55.36627001953125,0.08697590976953506,-1.643783688545227,-1.5501874685287476
1718311144018043100,55.41604321289063,-0.2359161227941513,-1.9117443561553955,0.10519459843635559
1718311144067816000,55.46581591796875,-1.0409129858016968,0.9945308566093445,1.5528799295425415
1718311144117589000,55.515589111328126,-1.5782662630081177,1.586564064025879,2.3393380641937256
1718311144167362300,55.5653623046875,-1.3717542886734009,1.8924531936645508,3.179777145385742
1718311144217135000,55.61513500976562,-1.2075427770614624,2.443326473236084,3.6949892044067383
1718311144266908200,55.664908203125,-1.5257052183151245,2.0081751346588135,4.007467746734619
1718311144316681200,55.71468115234375,-1.132643461227417,-0.26638880372047424,2.5255250930786133
1718311144366454000,55.7644541015625,-1.2476749420166016,1.3978713750839233,3.1707985401153564
1718311144416227000,55.81422705078125,-0.27893149852752686,3.518317461013794,1.366886019706726
1718311144466000100,55.86400024414063,0.20353421568870544,-1.7217738628387451,1.2812896966934204
1718311144515773200,55.913773193359376,-0.2931290864944458,2.4698939323425293,0.5576565861701965
1718311144565545000,55.963544921875,0.2805299162864685,-0.9071256518363953,0.11067032068967819
1718311144615318000,56.01331811523438,0.26646098494529724,-0.27303844690322876,-0.13902872800827026
1718311144665091000,56.063091064453126,0.5302913188934326,-1.2886428833007812,-1.2854889631271362
1718311144714864000,56.112864013671874,0.4463428556919098,-1.9051258563995361,-2.4753544330596924
1718311144764636400,56.16263647460938,1.0536961555480957,-1.7091320753097534,-4.629137992858887
1718311144814409500,56.21240942382813,2.917593240737915,0.9493647217750549,-4.796055793762207
1718311144864182500,56.2621826171875,1.3748981952667236,-2.4853708744049072,-3.210646152496338
1718311144913955600,56.31195556640625,0.5447884798049927,-1.5164313316345215,-4.084148406982422
1718311144963728600,56.361728759765626,1.3053419589996338,-1.5555622577667236,-3.347867727279663
1718311145013501700,56.411501708984375,0.2809152901172638,-2.67728853225708,-1.5016987323760986
1718311145063274500,56.4612744140625,-0.6581984162330627,-0.10120278596878052,0.3734278976917267
1718311145113047600,56.51104760742187,-0.8517960906028748,0.49476924538612366,1.147657871246338
1718311145162820600,56.56082055664063,-1.2470699548721313,1.9606008529663086,2.677651882171631
1718311145212593700,56.61059375,-1.1978321075439453,2.6811816692352295,3.584017753601074
1718311145262366500,56.660366455078126,-1.4492213726043701,3.5852789878845215,4.135083198547363
1718311145312139500,56.710139404296875,-1.2733635902404785,2.036475896835327,3.899350166320801
1718311145361912600,56.75991259765625,-1.0099308490753174,-1.030425786972046,3.0574519634246826
1718311145411684600,56.8096845703125,-1.037756085395813,2.6995458602905273,2.857189178466797
1718311145461457400,56.85945751953125,-0.498365581035614,1.0311216115951538,1.6388113498687744
1718311145511230500,56.90923046875,-0.04902240261435509,-1.1679575443267822,0.3581344485282898
1718311145561003800,56.959003662109374,-0.32266566157341003,1.3723915815353394,1.475529432296753
1718311145610776600,57.00877661132812,0.29400286078453064,0.18881545960903168,-0.09821764379739761
1718311145660549600,57.05854956054687,0.2010636031627655,0.09003375470638275,-0.6657982468605042
1718311145710322700,57.10832275390625,0.5343249440193176,-1.0698192119598389,-1.576245665550232
1718311145760095200,57.15809521484375,0.3022341728210449,-0.8948021531105042,-2.5170297622680664
1718311145809868000,57.207867919921874,0.5947189927101135,-1.1482863426208496,-3.4281017780303955
1718311145859641300,57.257641357421875,1.6175556182861328,-1.7620598077774048,-5.046450614929199
1718311145909414400,57.307414306640624,1.4192036390304565,-0.6626306772232056,-3.847210645675659
1718311145959187200,57.35718725585937,0.3399581015110016,-2.6197612285614014,-4.103226184844971
1718311146008960300,57.40696020507813,0.8709721565246582,-2.021336317062378,-3.019209384918213
1718311146058733300,57.4567333984375,0.46912726759910583,-1.5953354835510254,-1.9704867601394653
1718311146108506000,57.506506103515626,-0.4751119315624237,-1.1301072835922241,0.19004583358764648
1718311146158279200,57.556279052734375,-0.6851993799209595,1.405749797821045,1.7012158632278442
1718311146208052200,57.60605224609375,-1.4275877475738525,1.8392690420150757,2.6199145317077637
1718311146257824300,57.65582421875,-1.1269973516464233,2.9992895126342773,3.7738518714904785
1718311146307597000,57.70559716796875,-1.331025242805481,2.8776626586914062,3.994013786315918
1718311146357370000,57.7553701171875,-1.0105398893356323,1.7085933685302734,4.018818378448486
1718311146407143200,57.80514306640625,-0.4115161895751953,-0.8772026300430298,2.58642315864563
1718311146456916000,57.854916015625,-1.006944179534912,2.516718626022339,2.9162700176239014
1718311146506689300,57.90468920898437,-0.29331284761428833,2.2918286323547363,0.8451884984970093
1718311146556462300,57.95446240234375,0.023032348603010178,0.22030174732208252,0.16753865778446198
1718311146606235400,58.0042353515625,0.0026192190125584602,-0.16376736760139465,0.7829826474189758
1718311146656008200,58.05400830078125,0.2286400943994522,0.036609675735235214,-0.16899888217449188
1718311146705781200,58.10378125,0.32460951805114746,-0.7234809994697571,-0.6905917525291443
1718311146755554800,58.15355493164063,0.5191454291343689,-1.4035804271697998,-1.8887114524841309
1718311146805328000,58.203327880859376,0.39984408020973206,-1.157827377319336,-2.9206533432006836
1718311146855101000,58.253100830078125,1.526318907737732,-1.6675201654434204,-4.873520851135254
1718311146904873700,58.302873779296874,2.9775960445404053,-1.0658631324768066,-5.309837818145752
1718311146954645800,58.352645751953126,-0.2535023093223572,-2.804199457168579,-3.1296215057373047
1718311147004418800,58.402418701171875,0.8485318422317505,-1.7228878736495972,-2.9059712886810303
1718311147054191900,58.45219189453125,0.4295761287212372,-1.9489611387252808,-2.1103899478912354
1718311147103965000,58.50196484375,0.18592938780784607,-1.96707284450531,-1.120911717414856
1718311147153738000,58.551738037109374,-1.1082226037979126,1.5956676006317139,1.0412062406539917
1718311147203511000,58.60151098632812,-1.3394951820373535,1.594991683959961,2.1158785820007324
1718311147253284000,58.6512841796875,-1.0345169305801392,2.177156448364258,3.1847150325775146
1718311147303057000,58.70105688476563,-0.8319432735443115,2.13741397857666,3.552793502807617
1718311147352830000,58.750829833984376,-1.0744853019714355,3.629237651824951,4.023924827575684
1718311147402603000,58.80060302734375,-1.3104020357131958,-0.6728897094726562,2.8443477153778076
1718311147452375800,58.850375732421874,-0.9904304146766663,0.2818244993686676,3.149137020111084
1718311147502148900,58.90014892578125,-0.432090699672699,3.560145139694214,1.7847791910171509
1718311147551922000,58.949921875,0.06094084680080414,0.6106492280960083,1.249129056930542
1718311147601694000,58.99969384765625,-0.07569289952516556,0.6279781460762024,0.08297611027956009
1718311147651466800,59.049466796875,0.12235920131206512,-0.7744578719139099,0.24421373009681702
1718311147701240000,59.09923999023437,0.32844871282577515,-0.8938421010971069,-0.44727471470832825
1718311147751013000,59.14901318359375,0.6101179718971252,-1.7461899518966675,-1.5286225080490112
1718311147800786000,59.19878588867188,0.37042146921157837,-1.6881521940231323,-3.2272956371307373
1718311147850559000,59.24855908203125,1.6318674087524414,-1.56479811668396,-4.74459171295166
1718311147900332000,59.29833203125,2.9060826301574707,-0.4212665557861328,-3.969514846801758
1718311147950104800,59.348104736328125,0.9879520535469055,-1.2403382062911987,-3.6972689628601074
1718311147999878100,59.397878173828126,1.0906473398208618,-0.7351544499397278,-3.996706247329712
1718311148049651200,59.447651123046874,0.6115112900733948,-2.2506654262542725,-2.1403377056121826
1718311148099423200,59.49742333984375,-0.3847162425518036,-1.6450772285461426,-0.609387993812561
1718311148149196000,59.547196044921876,-0.8164953589439392,0.1089475229382515,0.6777031421661377
1718311148198969000,59.596968994140624,-1.3289927244186401,1.409027338027954,1.8465312719345093
1718311148248742100,59.6467421875,-1.4774078130722046,2.4849843978881836,2.9258790016174316
1718311148298515200,59.69651513671875,-1.4786903858184814,3.0342488288879395,3.7344777584075928
1718311148348288000,59.7462880859375,-0.8351545333862305,2.65457820892334,3.358250141143799
1718311148398061000,59.79606103515625,-0.9049951434135437,-1.1568199396133423,2.791253089904785
1718311148447834000,59.84583422851563,-1.1981114149093628,1.5137228965759277,3.2812986373901367
1718311148497607000,59.89560693359375,-0.76936936378479,3.2157018184661865,1.9599940776824951
1718311148547380000,59.9453798828125,-0.10482548177242279,0.44917672872543335,1.1231149435043335
1718311148597152000,59.99515209960938,-0.25597238540649414,1.6989433765411377,0.5345944166183472
1718311148646925000,60.04492504882813,0.1225980892777443,-0.5225836038589478,0.7045312523841858
1718311148696697900,60.09469775390625,0.2516458034515381,-0.48453524708747864,0.024585237726569176
1718311148746471000,60.144470947265624,0.37218475341796875,-1.0681347846984863,-0.5982179045677185
1718311148796244000,60.19424389648437,0.4938558042049408,-1.8931910991668701,-1.90797758102417
1718311148846016800,60.24401684570312,0.7587193846702576,-1.9083362817764282,-3.8505654335021973
1718311148895789800,60.29378979492188,2.6294167041778564,-0.04108298942446709,-4.701097011566162
1718311148945563000,60.34356298828125,1.8702040910720825,-1.8693641424179077,-2.4551730155944824
1718311148995336000,60.3933359375,-0.10579407215118408,0.44192707538604736,-3.064512014389038
1718311149045108700,60.443108642578125,1.6356251239776611,-2.1401281356811523,-4.5939836502075195
1718311149094880800,60.492880859375,0.296743780374527,-2.0823307037353516,-2.3076436519622803
1718311149144653800,60.54265380859375,-0.3034679889678955,-1.2659341096878052,-0.29875287413597107
1718311149194427000,60.592427001953126,-0.6352326273918152,-0.28169718384742737,0.26379144191741943
1718311149244199700,60.64219970703125,-0.8002431392669678,1.4546012878417969,1.7531434297561646
1718311149293972700,60.69197265625,-0.9488158226013184,2.4600863456726074,2.899811267852783
1718311149343745800,60.74174584960937,-1.6362658739089966,2.756577491760254,3.117041826248169
1718311149393518800,60.79151879882812,-1.3634508848190308,2.6061718463897705,3.75571608543396
1718311149443292000,60.8412919921875,-0.8275200724601746,0.8624849319458008,3.291410446166992
1718311149493064000,60.89106396484375,-0.9742937684059143,-1.2687374353408813,3.181145429611206
1718311149542837000,60.9408369140625,-0.7760776281356812,2.129014015197754,2.491847276687622
1718311149592609800,60.99060986328125,-0.3951191008090973,3.2157766819000244,1.5224940776824951
1718311149642382800,61.0403828125,-0.03437794744968414,-1.263776183128357,1.2003918886184692
1718311149692156000,61.09015600585938,0.022713301703333855,0.25239524245262146,0.5306982398033142
1718311149741929000,61.139928955078126,0.03947576880455017,-0.34165719151496887,0.033557694405317307
1718311149791702000,61.189701904296875,0.32500845193862915,-0.7119846343994141,-0.6750279664993286
1718311149841475000,61.23947509765625,0.5930521488189697,-1.5778260231018066,-2.021394729614258
1718311149891247000,61.2892470703125,0.8679212927818298,-1.5594536066055298,-3.9851739406585693
1718311149941020000,61.33902001953125,2.240819215774536,0.10183048993349075,-4.621367454528809
1718311149990793000,61.38879296875,1.7837504148483276,-0.8722662329673767,-2.9381186962127686
1718311150040566000,61.43856591796875,-0.3614881634712219,-1.5899393558502197,-3.8302717208862305
1718311150090339000,61.48833911132812,1.621364712715149,-2.8858580589294434,-3.2418806552886963
1718311150140112100,61.53811206054687,0.7578701376914978,-2.876309871673584,-2.918691396713257
