time,seconds_elapsed,z,y,x
1718451804620273700,0.016273681640625,-0.26078093395233154,-0.14322159923762082,-0.1673653124237433
1718451804670045700,0.066045654296875,0.06564589986503123,0.0658292936079204,0.2610662902323529
1718451804719817500,0.1158173828125,0.3907610665619373,-0.13608794796541332,-0.11141944372020661
1718451804769588500,0.16558837890625,-0.06262509073913097,0.03978416724726558,0.13621132774990982
1718451804819360500,0.215360595703125,0.06825052940547466,0.05738485199809074,0.09419573905561118
1718451804869132500,0.265132568359375,0.014077040669322013,0.02792904041111469,0.028673529502330347
1718451804918904600,0.314904541015625,0.08651450037062168,0.077886372756958,0.018547354483790694
1718451804968675600,0.364675537109375,0.300491597571969,-0.08305179269611836,-0.18227610050346701
1718451805018447400,0.414447265625,0.03334054406583309,0.06527326716035604,0.14996550227357075
1718451805068218400,0.46421826171875,0.08975158259570598,0.008774842607975005,0.016350849086511878
1718451805117990100,0.513990234375,0.06926350584030151,0.0518947301492095,0.0055207361828535795
1718451805167762200,0.56376220703125,0.15738310332000255,0.03372662077397108,0.011984817630425094
1718451805217533400,0.613533447265625,-0.027609891459345816,0.023943477906286714,-0.02790432609496638
1718451805267305500,0.663305419921875,0.08651040871739386,0.03687280984520912,0.020976810120418667
1718451805317077500,0.713077392578125,0.10659691893458366,0.06236848562955856,0.01896579909157008
1718451805366848300,0.76284814453125,0.07253098320364952,0.06789514009654521,0.00836063578389585
1718451805416620300,0.812620361328125,0.005866846206784248,0.02489303371608257,0.012288330621644854
1718451805466392300,0.862392333984375,0.03116203098297119,0.008520283325016498,0.008564633923396467
1718451805516163300,0.912163330078125,0.10231003539562225,0.04000555491298437,-0.003967917250283062
1718451805565935400,0.961935302734375,0.08237257826030255,0.045431963875889776,-0.03336175125064328
1718451805615707400,1.011707275390625,0.0426379492431879,0.048746495251357554,-0.03966543623842299
1718451805665478100,1.06147802734375,0.07689969980716704,0.07208236265331507,-0.0024090521694160997
1718451805715250200,1.111250244140625,0.09730418993234634,0.027249241453409193,0.011216975063085555
1718451805765022200,1.161022216796875,0.06053600950539112,0.04218596769198775,0.02645087588364258
1718451805814793500,1.21079345703125,0.0879687908321619,-0.04696384961828589,-0.0658835993447341
1718451805864565200,1.260565185546875,-0.08476677992045879,0.007598346174508333,-0.028277945180330423
1718451805914336300,1.310336181640625,0.06493453672528267,-0.014272563241422176,-0.05850068601919338
1718451805964108300,1.3601083984375,0.18510171585083007,0.026980361384153363,0.05243886522958055
1718451806013880300,1.40988037109375,-0.08641571617126464,0.03602832184508443,0.0007725735413841902
1718451806063651300,1.4596513671875,0.10628069259226322,0.02387903436794877,0.01828558000875637
1718451806113423400,1.50942333984375,0.0023375030368566513,0.027894992011040447,-0.021904957816004753
1718451806163195400,1.5591953125,0.16899112352728843,0.04456351047828793,0.02824957760237157
1718451806212966100,1.608966064453125,0.06263911926448344,0.044250499006360765,-0.028393406519852577
1718451806262738200,1.65873828125,0.12499416089057921,-0.02024213917031884,-0.04721707546068355
1718451806312509200,1.70850927734375,0.013292612293362616,0.04537921077534556,0.03231101835500449
1718451806362281200,1.75828125,0.08329495380222797,0.019663462499529123,-0.037039946573041375
1718451806412053200,1.80805322265625,0.0890408039778471,0.00025718963146209714,0.03815967131797224
1718451806461824500,1.857824462890625,0.01856616878211498,0.03537541089430451,-0.03586989814667031
1718451806511596300,1.90759619140625,0.08826689699590205,-0.049935412774980065,-0.04984439175697043
1718451806561368300,1.957368408203125,0.0781394707351923,-0.039892449927330015,-0.002658423820603639
1718451806611139300,2.007139404296875,-0.03276712809205055,-0.006693067897856235,0.04501947408486157
1718451806660911400,2.056911376953125,0.18690204327106474,-0.010711802019923925,0.0018382117452099918
1718451806710682400,2.106682373046875,-0.0028857845693826675,0.06031622927486896,0.0877764100652188
1718451806760454400,2.156454345703125,0.21278174993693827,0.02894537784680724,-0.04265323814386501
1718451806810226200,2.20622607421875,-0.03745382460355758,-0.03990194840803742,-0.17994835167564452
1718451806859997200,2.2559970703125,0.4370546157032251,-0.019822744714468717,-0.020098109323438255
1718451806909769200,2.305769287109375,-0.28602526532411576,-0.10873407709375023,-0.15278974764775483
1718451806959540500,2.35554052734375,0.34630993041694164,-0.031306992411613464,-0.17990712461611255
1718451807009312500,2.4053125,-0.7895300830125809,-0.11067688172459601,-0.17301420503091067
1718451807059084300,2.455084228515625,0.3319143253177404,0.021773732651770114,-0.14670694800219497
1718451807108855600,2.50485546875,0.36736499340534207,-0.3693094054713845,-0.4954152539309114
1718451807158627600,2.554627685546875,-0.14804536613225935,0.1345540163964033,0.20230101672653109
1718451807208398600,2.604398681640625,-0.1468371593862772,-0.2240221058756113,-0.30421375990025695
1718451807258170600,2.654170654296875,-0.1526923151552677,-0.07005173360854387,-0.15745941995922474
1718451807307942700,2.703942626953125,-0.30440263353586194,0.05111585473120212,0.09270239522531629
1718451807357713400,2.75371337890625,-0.12404548186361788,-0.11740560545772313,0.22633535125404594
1718451807407485400,2.8034853515625,-0.6993845326632261,0.32931875586658715,0.43204533617384727
1718451807457256400,2.85325634765625,0.7363000126063823,0.21172990279644727,0.9341189520154147
1718451807507028500,2.903028564453125,-1.2386439698219298,-0.27210955269634723,0.23792130575999615
1718451807556799700,2.9527998046875,-0.2589525494813919,0.3184101161003113,1.5282191827125846
1718451807606571500,3.002571533203125,-0.5517641139447689,-0.05402414339333772,0.2719028511431068
1718451807656342500,3.052342529296875,-0.34438802244365213,0.38615240372270343,0.7062633323915303
1718451807706114600,3.102114501953125,0.35047406435906886,-0.24290742360949516,0.4695519869431853
1718451807755886600,3.151886474609375,1.0668705220997332,-0.5814680550739169,-1.2108924779348074
1718451807805657600,3.20165771484375,1.6970096691012382,-0.3722156483069062,-0.5953828178536147
1718451807855429600,3.2514296875,0.5733148514956236,0.08366349485367536,-1.0843041797205806
1718451807905200400,3.301200439453125,-0.4579688089162111,0.38111762442588804,-1.1558403066679834
1718451807954972400,3.350972412109375,-0.851015356066823,0.15470511628240347,-0.5987864522846416
1718451808004743700,3.40074365234375,0.5135077407866716,0.7050353980317712,-0.10897869950458407
1718451808054515700,3.450515625,0.759249511039257,-0.056333881640434263,-0.17467421066500247
1718451808104286700,3.50028662109375,0.38469314482510086,-0.08793956473767757,0.007297828857973218
1718451808154058800,3.550058837890625,0.7528571796536445,0.11577683521211146,0.2813748822350055
1718451808203829500,3.59982958984375,-0.5848650040358304,0.4867661565944552,0.2054253958247602
1718451808253601500,3.6496015625,-0.9574638064414263,-0.011147124697268009,0.024795418560504913
1718451808303372500,3.69937255859375,-0.23656769919395446,0.08862871604561805,-0.4880827921509742
1718451808353144600,3.74914453125,0.4860650225877762,-0.05010550864487886,0.7325162562839687
1718451808402916600,3.79891650390625,-0.5112590850770473,-0.7519160994112492,-0.6316475057378411
1718451808452687600,3.8486875,-1.1386240911900996,-0.17451602442860603,-1.0724420386217535
1718451808502459600,3.898459716796875,2.4196049814820286,0.7889803401753306,0.3236896639384329
1718451808552230700,3.948230712890625,-0.23281682222783565,-0.0014165887996554374,-0.6706704793542623
1718451808602002700,3.998002685546875,-0.4240712154895067,0.18092267660051584,-0.7094141245726495
1718451808651773700,4.047773681640625,-0.325035087198019,0.17930822714120148,-1.3414971721835434
1718451808701545700,4.097545654296875,0.45564007370769977,-0.354440629902482,-0.3769318631738424
1718451808751316500,4.14731640625,1.0400105722248554,-0.28750381344407794,0.248511088835448
1718451808801088500,4.197088623046875,-0.8177759342879056,-0.4759618539854884,-0.5343537276016548
1718451808850859500,4.246859619140625,-0.48355508559346194,-0.8324775365963578,-1.1028755361344664
1718451808900630800,4.296630859375,0.4236912762612104,0.2668877263948321,0.34652233105860647
1718451808950402800,4.34640283203125,0.662688832950592,-0.35993279757797714,0.8062902983512729
1718451809000174600,4.396174560546875,-0.008331190493702888,-0.2208431835785508,-0.5611334518471732
1718451809049945600,4.445945556640625,1.4637901112914085,-0.6824740221336484,-0.26958832712303843
1718451809099717000,4.495717041015625,0.10944529410302638,-0.4611079837247729,-0.8799806807231157
1718451809149489200,4.5454892578125,0.5772253029376267,-0.3218959123894572,-0.6326255569897592
1718451809199260200,4.59526025390625,0.36819559901058674,-0.31914982855170965,-1.0243471391469239
1718451809249032000,4.645031982421875,1.1324603078633546,-0.592683861093223,-1.2605021658867597
1718451809298803200,4.69480322265625,1.1695131504505871,-0.7553861136093736,0.5195939288325607
1718451809348575200,4.7445751953125,0.020466449445486066,-0.7766630026549101,0.7805275691285729
1718451809398346200,4.79434619140625,0.006204699859023094,-0.9877589914619922,0.8868668600402771
1718451809448118300,4.8441181640625,-0.3694996673464775,-1.1296721384495496,-0.18846878113113344
1718451809497889000,4.893888916015625,0.33223464331328867,-1.029378995834291,-0.5409651450980454
1718451809547660000,4.943659912109375,0.22719489069283008,-1.3093728720396756,-0.6694373573627322
1718451809597432000,4.99343212890625,-0.023783026647567748,-0.7269409403696656,-0.5237359970733523
1718451809647203300,5.043203369140625,-0.9737731362074613,0.7771662760019302,-0.5054719530429691
1718451809696975000,5.09297509765625,-0.5324830748915672,0.8480769645273685,0.13522128466609865
1718451809746746000,5.14274609375,0.6011614743202924,0.7674830863773823,0.3752503763603046
1718451809796518100,5.19251806640625,0.3299795578628778,0.5203349564582109,-1.483087370827049
1718451809846289200,5.2422890625,-1.2709563398838042,0.9682119949489831,-1.7937613397173582
1718451809896060200,5.29206005859375,0.7016665061205625,1.2655991967648268,-0.5876510910904035
1718451809945832200,5.341832275390625,1.4898609566152095,-0.2696229965776205,-1.5666498895242809
1718451809995603200,5.391603271484375,1.3313853818833827,-0.47346799134314055,-1.8153814892426132
1718451810045375200,5.441375244140625,0.6528279486715793,-0.023381460109353065,-1.6502787514559925
1718451810095146200,5.491146240234375,0.18383622595965862,0.25690818417221306,-0.8432978404920548
1718451810144916200,5.540916259765625,0.42708851748406884,-0.8648802152901888,-0.9919384691037237
1718451810194688300,5.590688232421875,0.7858826664209365,-1.3138684298932553,-0.9110422470062971
1718451810244459300,5.640459228515625,-0.06056640464365482,-1.0125760373324155,-0.8093071619544178
1718451810294231300,5.690231201171875,-0.4302677320420742,0.1258715282469988,-0.05896152673028409
1718451810344002600,5.74000244140625,-2.6026409969747064,-0.5469169661745429,1.1852408809363841
1718451810393773300,5.789773193359375,0.9188730867624282,-1.3741674157723784,0.6226297212194651
1718451810443545300,5.83954541015625,-2.7742677297025917,0.9450529454186558,-0.5841114091895521
1718451810493316400,5.88931640625,1.634097578114271,0.9732102416276931,-0.6540763412974775
1718451810543087400,5.93908740234375,0.6109346803158521,0.952232920050621,-0.20318068563789127
1718451810592859400,5.988859375,3.539699144247174,0.945626945914328,3.62311889347285
1718451810642630400,6.03863037109375,1.5012427668511867,0.3668587974488735,-0.09329875368326902
1718451810692402400,6.08840234375,2.2276631904780864,2.1517864039778707,3.2898978694707153
1718451810742173400,6.13817333984375,-1.288131931090355,-0.6528656503334641,-1.276851827663183
1718451810791944200,6.187944091796875,-0.16260288379490376,-0.5642214444577693,0.25826164460778234
1718451810841716200,6.23771630859375,-4.677337147009372,-1.4464831487901508,-2.1195336551487443
1718451810891487500,6.287487548828125,-1.5687942080765962,-1.7109614759556948,-1.7797779686808586
1718451810941259300,6.33725927734375,-2.4080033910155296,-0.6164988903142512,-1.6108528961271047
1718451810991030500,6.387030517578125,0.6389782870173454,0.7752534281179309,-0.37285774560272694
1718451811040801300,6.43680126953125,-1.6751877133935689,1.2072606973037123,-1.622825657993555
1718451811090573300,6.4865732421875,0.4333598528385162,1.5863912395656108,0.5010217687010765
1718451811140344600,6.536344482421875,1.457071324430406,0.9357795056387782,0.7187164251208304
1718451811190116600,6.58611669921875,1.045662314376235,0.12685542471781372,0.31324761877059937
1718451811239887600,6.6358876953125,0.818120217680931,-0.533280801140517,1.174067745015025
1718451811289658600,6.68565869140625,0.021383272029459475,-0.0018605331748723982,2.9648680429697034
1718451811339430700,6.7354306640625,0.8486036187499761,-0.49578445256948467,1.2559335427969693
1718451811389201700,6.78520166015625,0.37509208052605386,0.6026178106084465,1.402616972926259
1718451811438972700,6.83497265625,-0.4346437551692128,0.6983036786239594,0.6171475634813308
1718451811488744700,6.88474462890625,0.19799290773645042,1.6163943097718059,-0.5593184748470783
1718451811538515500,6.934515380859375,-0.26911446253359317,2.724436069563031,0.11513619922101496
1718451811588287500,6.98428759765625,-2.1824409238301214,2.1324701474808156,-3.3054595957398414
1718451811638058800,7.034058837890625,-3.428274074503779,2.4780881501108407,-3.905785203757882
1718451811687829800,7.083829833984375,-2.1668327280707658,-0.0067865914002060886,-6.463048597392439
1718451811737601500,7.1336015625,-0.6212811561547219,-0.9178075033575296,-3.1309225285232065
1718451811787372500,7.18337255859375,2.1354811658650634,-0.13764146101772784,1.8424159189015625
1718451811837143600,7.2331435546875,3.2595220204293724,-2.1723986916348337,0.2179611984014511
1718451811886915600,7.28291552734375,3.6828807037353513,-0.6227919991090893,0.7247054364025592
1718451811936686600,7.3326865234375,-0.6974591175585985,1.4865525627195835,-0.03995791637897491
1718451811986457600,7.38245751953125,2.8943489841103553,-1.7850035943746565,-0.11485855132341384
1718451812036229600,7.432229736328125,4.325301824682951,-0.6357254227012396,3.0676117936074734
1718451812086000600,7.482000732421875,2.602694188466668,-1.7076286782711743,-1.8134899764075874
1718451812135771600,7.531771728515625,-2.3852540913298723,2.8082190991431473,2.137460649244487
1718451812185543400,7.58154345703125,-3.2522841781303287,2.336742573878169,0.6833546043604612
1718451812235314700,7.631314697265625,-3.576598257577419,2.818576242506504,0.17746435284018516
1718451812285085700,7.681085693359375,2.5139748715281485,-2.5238831020802257,-2.8731209026426074
1718451812334857700,7.730857666015625,1.429142576280236,-4.1468356013238425,-5.1920986872494215
1718451812384628500,7.78062841796875,0.5369347570708021,-2.0254899283170698,1.3171113573372364
1718451812434399500,7.8303994140625,-0.20072130978703498,-3.3761896670013662,-0.9394844976365566
1718451812484171500,7.880171630859375,2.4494471620380875,-4.954589907813072,-10.713517007148265
1718451812533942800,7.92994287109375,5.084254398602247,0.927288448408246,-4.457176392737031
1718451812583713500,7.979713623046875,4.66070516116023,4.546886766539513,1.6432061827212572
1718451812633484500,8.029484619140625,-3.4772277827650306,4.609436161693931,-1.6694401096522806
1718451812683256600,8.079256591796875,-5.658074861532449,8.008972802013158,5.889955279693007
1718451812733027600,8.129027587890626,-3.5656536697149273,6.568146802201866,4.60578289988339
1718451812782798600,8.178798583984374,3.1580829226493834,1.4048153597533701,3.023523645555973
1718451812832570600,8.228570556640625,-1.8140362121134996,1.8223872763514517,3.223175864806771
1718451812882341600,8.278341552734375,-1.603179877281189,-0.4534931248068809,1.6487907048553228
1718451812932112600,8.328112548828125,0.6384948874145746,-1.9294757781952618,-0.3160480631440878
1718451812981884700,8.377884765625,-0.027828502646088597,-0.5033808990478515,-5.452555796074867
1718451813031655400,8.427655517578126,1.9085455106303095,-1.2698942636102437,-5.053151988852024
1718451813081426700,8.4774267578125,-0.47492257406562566,0.2571855398088693,-7.371430100756883
1718451813131199000,8.527198974609375,-1.2167331667870283,1.3313356975227593,-6.518487576019764
1718451813180970000,8.576969970703125,-0.306869900432229,1.0710048454254866,-3.8803532408595083
1718451813230740700,8.62674072265625,2.30385123488456,-0.6415314786314964,-2.1583158057466147
1718451813280511700,8.67651171875,0.7452896670088172,0.4494377119362354,-2.1031910076349973
1718451813330283800,8.72628369140625,-3.5444817023485897,2.734436070051789,1.9148188918113707
1718451813380055000,8.776054931640624,-3.719115215677023,2.842937945824861,7.60480455686748
1718451813429825800,8.82582568359375,0.07866378687024116,-1.6492548152357338,5.393370032134651
1718451813479597800,8.875597900390625,-4.80716413488388,1.8681684920564292,2.1206863323152065
1718451813529368800,8.925368896484375,0.9131085318863391,-0.7099930204391479,1.5570774667978287
1718451813579139800,8.975139892578126,4.011454486453533,-0.19953765296041964,0.9369991105616092
1718451813628910800,9.024910888671876,1.166663606238365,-1.349747844786942,-2.499807229965925
1718451813678683000,9.074682861328125,-0.9948247651297598,2.318115030297637,1.9578975705593824
1718451813728454000,9.124453857421875,-3.430774074625969,2.381710135112703,-6.3019929430395365
1718451813778225000,9.174224853515625,-4.623656994748115,3.0060318280071017,4.956877141967415
1718451813827997000,9.223996826171875,-3.154677498120069,2.300945284309983,0.9369014954060315
1718451813877767700,9.273767578125,-0.45586628367900844,0.23818565578460693,-1.1289631133973599
1718451813927539000,9.3235390625,-0.971395885682106,1.5547209667995572,2.221291317358613
1718451813977310000,9.37331005859375,-0.4455073136847466,-2.4562872371912,-0.03143734079301357
1718451814027082000,9.42308203125,1.123100943365693,-3.081806323176622,-0.5400146394401788
1718451814076852700,9.472852783203125,-0.13489815365895627,-6.442925846818089,2.331848372095823
1718451814126623700,9.522623779296875,0.5501234340656549,-4.039170176374912,-1.7076321854025125
1718451814176395800,9.572395751953126,2.948936898866296,3.9947278080582618,-4.005557245108485
1718451814226166800,9.622166748046874,-0.9086527215212583,1.6860732645452021,-8.130944984734057
1718451814275937500,9.6719375,1.4060206438899039,1.707894051209092,-3.8032378524750468
1718451814325709600,9.72170947265625,-1.4917841797627507,-0.5023217453837394,4.443882026877999
1718451814375480600,9.77148046875,1.88758221757859,-0.3276677737891674,0.7105868946790694
1718451814425251800,9.821251953125,-1.016704223178327,1.467795255279541,2.1738152804344892
1718451814475022800,9.87102294921875,-0.4433854261599481,7.333630823716521,-3.014577245773375
1718451814524794600,9.920794677734374,-2.1359622273802756,-15.765488261783123,7.600902288731932
1718451814574565600,9.970565673828125,-4.5341026882901785,-3.2522470609903333,7.651686719551682
1718451814624336600,10.020336669921875,2.684642696096003,-1.2242957109957933,1.4314938155815005
1718451814674108000,10.07010791015625,7.4705299419343465,4.8920986725866795,-14.324249004995822
1718451814723879700,10.119879638671875,-2.2257179016292095,-2.649599147504568,4.40943322930932
1718451814773650700,10.169650634765626,-2.0649068696871398,2.172754373204708,6.2197501286387435
1718451814823421700,10.219421630859374,-10.479901143497228,-2.4338468573242427,4.607234559996426
1718451814873193700,10.26919384765625,-2.3336967764414847,-0.9991542457014322,5.444563628277182
1718451814922964500,10.318964599609375,-6.369196009218692,1.6960288413703442,-0.24352537284474818
1718451814972735700,10.36873583984375,-2.0396943947583437,-1.9547347226142882,-1.029197063396126
1718451815022506800,10.4185068359375,0.4612584981113672,-1.059746953830123,1.248326867185533
1718451815072278800,10.46827880859375,2.9740327616780995,0.5170277316063642,-1.21401389789097
1718451815122049800,10.5180498046875,2.1681530168890952,-0.5392074147105217,-1.9193175184048712
1718451815171820800,10.56782080078125,1.2251532046079634,0.6725456255763769,-0.37112361528649923
1718451815221592000,10.617592041015625,1.9112644142001867,1.697187363755703,-6.300727453148364
1718451815271364000,10.667364013671875,3.3889795904695985,3.5849545825123785,-4.775182019689679
1718451815321135000,10.717135009765625,5.10517443703413,3.374677508872747,-4.566080711831153
1718451815370905900,10.76690576171875,-5.591188021695613,5.132153044852614,3.851847277343273
1718451815420676900,10.8166767578125,1.976916305414587,6.8113184297055005,3.3434023729041216
1718451815470449000,10.866448974609375,-5.166379724103212,0.19080664949417114,2.104039295027405
1718451815520220200,10.91622021484375,-3.9093706610292194,-3.9243881974190473,1.204801321452856
1718451815569991000,10.965990966796875,-4.2200002062559125,-3.824315711817145,3.489097961039841
1718451815619762000,11.015761962890625,-4.701820430880785,-5.109209391638636,4.303769499571621
1718451815669534000,11.065533935546876,-2.356323764921725,-5.097775558954477,5.385463204532861
1718451815719305000,11.115304931640624,12.30201018742919,4.938602649608254,-8.015929197022318
1718451815769076000,11.165075927734375,3.7348657425165173,6.4324553062081335,-1.9188140989273785
1718451815818847000,11.214846923828125,0.43129502926319835,-4.402613027900457,10.076022236686944
1718451815868618000,11.264617919921875,-6.162113932228088,12.910942880272865,-3.8882545155033466
1718451815918390000,11.31439013671875,-7.234890463501214,-2.4501509263932704,7.801729396981001
1718451815968160800,11.364160888671876,-4.259774582761525,2.2195395052552223,2.2425034706048668
1718451816017932000,11.41393212890625,1.6149977408468723,0.06815232972800732,-1.8963526762723921
1718451816067703000,11.463703125,-1.0166776274323464,-3.2013807971060273,-0.4495493556171655
1718451816117475000,11.51347509765625,-0.763634667320922,-0.6485849042743445,-4.71753237927556
1718451816167246000,11.56324609375,3.15635449142158,-1.1101607977718113,-2.0943645809702574
1718451816217016800,11.613016845703125,0.7809861265510321,-0.008246434819698334,-0.9965054116930812
1718451816266788000,11.6627880859375,2.2416519683420657,0.9827736042648553,-1.3252014325514434
1718451816316559000,11.71255908203125,1.7675082696944475,0.2248971351444721,-7.553415145891904
1718451816366331100,11.7623310546875,1.8140918878234922,3.3970214426279064,-6.418335010918974
1718451816416102000,11.812101806640625,4.303164227154851,3.5149943265795707,-6.56429831008017
1718451816465873000,11.861872802734375,-4.89974421890378,4.490755421733856,3.0581898852676153
1718451816515644200,11.91164404296875,5.45195256948471,9.972116456532477,3.349964507898688
1718451816565415200,11.961415283203126,-8.37160199906826,-0.1760240909039974,3.280458425474167
1718451816615186000,12.01118603515625,-1.829714550499618,-3.6540269496947526,3.5881790975168344
1718451816664958000,12.0609580078125,-4.015512237411738,-4.378665166079998,3.6980133909374473
1718451816714729000,12.11072900390625,-5.83953734409809,-5.6878948302567,5.991370412075519
1718451816764500200,12.160500244140625,-0.10036913046091794,-3.6428958993494507,4.914068512332439
1718451816814271000,12.21027099609375,17.29340276246071,10.782520985269546,-19.948796859979627
1718451816864042000,12.2600419921875,-1.0668564935743807,-2.632540460675955,6.64076254107952
1718451816913813000,12.30981298828125,-0.813151781618595,-1.0402923117756844,12.03288695706725
1718451816963585000,12.3595849609375,-12.650690354108809,8.241002273255587,1.779335193349421
1718451817013356000,12.40935595703125,-4.664630225649476,-4.38431047849059,7.642666962271928
1718451817063127000,12.459126953125,-1.0821700903013347,5.815836735036969,-2.5118325988024472
1718451817112897800,12.508897705078125,0.8250970709562301,-2.0994851388543845,-0.6648148851938546
1718451817162668800,12.558668701171875,-1.6945371415078638,-3.766881175458431,0.051168680896982545
1718451817212439800,12.608439697265625,0.866179607450962,-0.7363432672262191,-3.1555519428670404
1718451817262211800,12.6582119140625,1.0895394500255584,-0.7599497682631016,-1.0178933598976583
1718451817311982800,12.70798291015625,3.652429451370239,0.9372709132403135,-1.2106021166861056
1718451817361753600,12.757753662109375,-1.221402766033262,1.0667769985973834,-6.109661860457062
1718451817411524900,12.80752490234375,5.48237167314589,2.5144611937403676,-8.418503450974821
1718451817461295900,12.8572958984375,1.7789853569984435,0.35729426576793194,-6.09866291205883
1718451817511066600,12.907066650390625,-0.527695840615034,6.638766398826241,1.5436024836748838
1718451817560838700,12.956838623046876,1.0731376196704805,10.076823031675815,4.715986903399229
1718451817610609700,13.006609619140624,-4.64812595783323,1.263819327610731,3.5908459786385296
1718451817660381000,13.056380859375,-2.6369290510237215,-3.193929312056303,1.905351683025062
1718451817710151700,13.106151611328125,-3.0127167125985026,-4.135705720022321,3.8697093895092602
1718451817759922700,13.155922607421875,-4.2928059147477144,-6.208007668396831,5.895950720715523
1718451817809693700,13.205693603515625,-2.5483225468099118,-4.573749346762895,7.750235356587171
1718451817859464700,13.255464599609375,20.144857192218304,6.573152063143253,-15.517306112641096
1718451817909236700,13.30523681640625,-0.7112421437174081,0.06936755073666573,1.3820473553672432
1718451817959007700,13.3550078125,-1.1307654866442083,-4.841468555545807,16.374688665652275
1718451818008778800,13.40477880859375,-5.480352150017023,18.010073360967635,-11.45158344490528
1718451818058549800,13.4545498046875,-5.227270538395643,-5.709384193009138,10.788434008705615
1718451818108320800,13.50432080078125,-4.511988763898611,5.657212691745162,3.535288634328544
1718451818158091500,13.554091552734375,0.5291419477701187,0.013985855254530905,-2.6171584748879075
1718451818207862500,13.603862548828126,-0.1870820760130882,-3.521332297429442,2.106633403173834
1718451818257633800,13.6536337890625,-3.4164994655579326,-0.7100625785440207,-1.7338612900279462
1718451818307405800,13.70340576171875,5.993000059103966,-1.4765630836248398,-2.180397289173305
1718451818357176600,13.753176513671875,-0.06088774555251002,1.102155185970664,-1.914272071583569
1718451818406947600,13.802947509765625,1.628722899338603,1.4147627532720566,-5.279186603593826
1718451818456718600,13.852718505859375,3.486898697429895,4.431559720921516,-7.246492638489603
1718451818506489600,13.902489501953125,1.8858441417396068,0.5939549039423465,-8.337793252968787
1718451818556260600,13.952260498046876,1.1566097566705196,4.068877332374453,-5.445017217263579
1718451818606031600,14.002031494140626,-7.712054386752843,5.438266573959589,3.804697403633594
1718451818655802600,14.051802734375,6.830581348580122,8.427558864089846,1.0093950692087412
1718451818705573600,14.10157373046875,-8.386494447773694,-0.6978337960898876,3.7413001594781874
1718451818755344600,14.1513447265625,-1.119006513658911,-4.315115361711382,3.153290427675843
1718451818805115600,14.20111572265625,-3.9172701821073885,-4.402419551154971,5.048185890877247
1718451818854887700,14.2508876953125,-4.920623340803385,-4.5753304784744975,8.475040161710977
1718451818904658400,14.300658447265626,1.299828067972511,-3.012331804934144,4.341716660650074
1718451818954429700,14.3504296875,4.955832601350545,11.053880596381426,-25.543169356930253
1718451819004200700,14.40020068359375,-2.737868674848974,-4.289105891185999,6.863049201464652
1718451819053971500,14.449971435546875,0.31080782440304755,2.7918513171881436,11.349703617620467
1718451819103742700,14.49974267578125,-10.643900450086592,3.6356729623585937,2.311654309850931
1718451819153514000,14.549513916015625,-4.428386936104298,-3.763281689661741,5.821060607165098
1718451819203285000,14.599284912109376,-0.007887392248958349,4.464721401289105,-2.0537904323890803
1718451819253055700,14.6490556640625,0.31951836960315705,-2.4557909781068563,-0.2056144886560738
1718451819302827000,14.698826904296874,-1.796733779656887,-3.043203328537941,-0.7955641024798155
1718451819352598000,14.748597900390624,2.622187408965826,-0.27693945707082745,-1.9343745100222527
1718451819402368800,14.79836865234375,-0.30076033151075243,-0.7684837878525257,-0.8521826462805271
1718451819452139800,14.848139892578125,3.5915216859430075,1.7112684960782527,-3.933606692141294
1718451819501911000,14.8979111328125,1.5027029025316236,1.5239099412113428,-6.769049898296594
1718451819551682000,14.94768212890625,2.059101106017828,2.4135142633914946,-8.024558493679761
1718451819601452800,14.997452880859376,2.5690800881564617,3.850340379911661,-6.345116629973053
1718451819651223800,15.047223876953124,-8.469823888367413,6.634439183276891,4.385184923237562
1718451819700995000,15.0969951171875,5.550492438691854,6.8821426089912645,1.609530123090744
1718451819750765800,15.146765869140625,-7.425343477252126,-0.9784031340956687,3.2498627962023017
1718451819800536800,15.196536865234375,-1.2210954536497591,-4.185245119217038,3.6097482475072145
1718451819850307800,15.246307861328125,-3.548644082725048,-4.154185379564762,5.169004227387905
1718451819900078800,15.296078857421875,-5.168897844403982,-5.091221315005422,8.623378957831859
1718451819949851000,15.345850830078126,1.7861913428544998,-2.6493530637890097,2.992909311583638
1718451819999622000,15.395621826171874,2.750292395353317,9.991399833673238,-26.89385214447975
1718451820049393000,15.445392822265624,-4.668283779720962,-3.618441257050633,6.300841434916854
1718451820099163600,15.49516357421875,1.9731366407454012,5.880004379042982,10.733142914116382
1718451820148935000,15.544934814453125,-11.221735409355164,0.4720511102825403,4.815740240049362
1718451820198704600,15.59470458984375,-3.8696412927091117,-1.9220944357722995,7.155055294764042
1718451820248476000,15.644475830078125,-1.4732815777361392,2.8850942490309475,-1.0474965440660715
1718451820298247000,15.694246826171875,0.9566144961357116,-2.4167682967513797,-1.4858528900176287
1718451820348017700,15.744017578125,-2.6122330011844634,-2.5282383746802806,-1.399475313899666
1718451820397788700,15.79378857421875,4.574861691918969,-0.6086340021580458,-1.8851918153107166
1718451820447560000,15.843559814453124,-2.212778194426745,-0.2200432653725147,-1.3584955071270466
1718451820497330700,15.89333056640625,5.438701458245515,0.9402648343592882,-3.769325938262045
1718451820547101700,15.943101806640625,0.9792444072254002,-0.40502106258273124,-7.728664160770178
1718451820596872700,15.992872802734375,1.247668403276801,2.856010193365812,-8.614261585396529
1718451820646644000,16.04264404296875,2.7919483478218314,4.5460009236156935,-5.557012195849419
1718451820696414700,16.092414794921876,-6.4118322048962115,6.664887513032555,4.346158734750747
1718451820746185700,16.142185791015624,5.515082102614641,8.107078371456264,2.2552765890687705
1718451820795956700,16.191956787109376,-7.074236960208416,-0.8707453079313039,4.1681133671522135
1718451820845727700,16.241727783203125,-0.9629153498455881,-4.643651735028624,3.460971644490957
1718451820895498800,16.291498779296877,-4.578215970782935,-4.297281014335155,4.5249131274014704
1718451820945269800,16.341269775390625,-5.643790900114178,-4.257759735807777,7.839204848894476
1718451820995040800,16.391040771484374,1.2096820792317389,-3.2430262281805273,5.2861090963333845
1718451821044811800,16.440811767578126,5.458211629879474,10.954295602035522,-28.792902973794934
1718451821094582800,16.490582763671874,-2.5573233071282506,-3.0700246999680996,8.64676743220389
1718451821144354000,16.54035400390625,-1.2673939712271094,10.303950702351331,-0.43412557651400563
1718451821194124300,16.590124267578126,-9.480931022191047,-1.7054776377171277,5.561106187164783
1718451821243895000,16.63989501953125,-3.563278172755241,3.5248178014576435,0.7536445306390523
1718451821293666000,16.689666015625,1.6261176852762698,-0.13941431590914724,-0.8610933902278542
1718451821343437300,16.739437255859375,-0.2780804437994957,-2.5065724863171575,1.4381971126124262
1718451821393208000,16.7892080078125,-3.2179438093721866,-3.116781190446019,-2.2927337746731937
1718451821442979000,16.83897900390625,5.758931775510311,-0.9966355408787727,-1.7124302333340047
1718451821492750000,16.88875,-0.4591204631693661,0.26936054624915123,-1.4084670141287148
1718451821542521300,16.938521240234376,2.7175883956253526,1.6591098542958498,-2.185163480661809
1718451821592292000,16.9882919921875,2.615023508685827,1.6866881815731525,-9.201541249358653
1718451821642062000,17.03806201171875,0.13639116869568824,0.824565740558505,-9.546719545397162
1718451821691833000,17.0878330078125,3.2143186046123504,6.033347267061472,-4.873084760037064
1718451821741604000,17.13760400390625,-7.788957593691348,7.342880882620811,5.338853429049253
1718451821791375000,17.187375,4.5590229022741315,5.590812174120545,1.656024747762084
1718451821841146000,17.23714599609375,-7.255346391552687,-1.3229858023285865,3.761845519378781
1718451821890917000,17.286917236328126,-1.3455132759571076,-3.491535709580779,2.8729572365134954
1718451821940687000,17.33668701171875,-4.826017596174776,-4.8421384176313875,5.88780482366085
1718451821990458400,17.386458251953126,-3.8847076366767284,-5.045828514096141,7.219452655872702
1718451822040229000,17.43622900390625,1.3239010174773633,-1.400361887475848,4.35907842207849
1718451822090000100,17.486000244140627,6.6606748637735835,9.263151610097289,-23.514249454164503
1718451822139770600,17.5357705078125,-1.0911667589664458,-2.753068289807439,7.1230375237345696
1718451822189542000,17.5855419921875,-2.558226101186871,6.913354324334859,2.436693771187961
1718451822239311600,17.6353115234375,-9.459044184553623,-1.9104454990327357,5.3735424651145935
1718451822289083000,17.685082763671875,-3.451940781295299,1.161542609962821,6.320202553468942
1718451822338854000,17.73485400390625,-1.3131938916325567,1.676075017622113,-2.4481562454447148
1718451822388624600,17.784624755859376,1.065748240071535,-2.5758254707634447,-1.1788513260297477
1718451822438395600,17.834395751953124,-2.734928822004795,-2.6730098337084054,-0.7881580640070139
1718451822488166000,17.884165771484376,4.45844597428143,-0.9199351630359888,-2.0287734800323842
1718451822537936600,17.9339365234375,-1.1996049218535423,-0.3396569022685289,-1.7446179541029034
1718451822587707600,17.983707763671877,4.414619692036509,2.164067793402076,-1.907859135801345
1718451822637479000,18.03347900390625,1.617390335071832,0.3943734118402004,-9.49166868930459
1718451822687249700,18.083249755859374,1.6247181937418878,2.531080320107937,-8.67095494799912
1718451822737020000,18.13302001953125,2.4760908388137817,4.050941278189421,-5.707820012432337
1718451822786791000,18.182791015625,-7.353785722994804,6.413816072189808,4.67814320269525
1718451822836561700,18.232561767578126,6.024820261734724,8.522393449038267,2.0367086569458244
1718451822886332700,18.282332763671874,-7.036919913727044,-0.34504853217899795,4.041301050923765
1718451822936103000,18.33210302734375,-2.088484144629538,-3.295209419882297,3.5437846599951386
1718451822985873700,18.381873779296875,-3.8219469368591903,-4.732857374179363,4.975657245761155
1718451823035644700,18.431644775390627,-5.094949980139732,-5.57744883467853,8.455074063003062
1718451823085416000,18.481416015625,2.7467159981712697,-2.5860598645299673,1.2917059901848436
1718451823135185400,18.531185302734375,6.123569389778376,8.764560867935419,-24.769437731552124
1718451823184956700,18.580956787109375,-2.480008596779406,-2.681428702485561,8.722247328341007
1718451823234727700,18.630727783203124,-1.2379194549396633,5.2758963298767805,5.408753479227423
1718451823284497400,18.680497314453124,-11.077358502602577,-2.1046973205447195,4.487710354949534
1718451823334268700,18.7302685546875,-2.952056784452498,1.6718839956730602,6.194295953908562
1718451823384039700,18.780039794921876,-3.2314182079732414,3.07371654022336,-3.742163790570199
1718451823433810400,18.829810546875,1.402493638807535,-3.1981209185272452,-0.5299836592912673
1718451823483580700,18.87958056640625,-1.164701950776577,-2.5017192010670897,0.9645656012706458
1718451823533351700,18.9293515625,1.61304368416965,-1.39239485411942,-1.8485921233184635
1718451823583122400,18.979122314453125,0.06725684219300747,-1.7072873174875973,-1.552022521495819
1718451823632892700,19.028892578125,3.7175486970126626,1.5429448965489863,-2.6966765404999253
1718451823682663400,19.078663330078125,-1.6707563068173825,-0.08060439954400062,-5.583282947659492
1718451823732434400,19.128434326171874,4.926100310909748,2.3530548262536524,-6.942553530812263
1718451823782204700,19.17820458984375,3.3394150568336247,0.3834142109304666,-9.120435330033303
1718451823831975400,19.227975341796874,2.091077960515022,5.324934209290147,2.895410768122971
1718451823881746400,19.277746337890626,-5.778052655565738,7.944153416100144,3.141932582837343
1718451823931516700,19.3275166015625,-0.125336836848408,2.499769820564985,0.9389020215734839
1718451823981287400,19.377287353515626,-7.012060197758674,-0.9055319591522216,3.177016755700111
1718451824031058400,19.427058349609375,-2.169483388710022,-4.246007338693738,3.298709244696796
1718451824080828700,19.47682861328125,-4.003528661890328,-5.113097631248832,6.257922915166616
1718451824130599700,19.526599609375,-1.9207097034156322,-3.6472628623872994,9.745378077435493
1718451824180370700,19.57637060546875,8.844670761960744,0.2716816826730966,-2.5564059000223875
1718451824230140700,19.626140625,3.079238810776174,10.327812054932117,-9.157952283000945
1718451824279911400,19.675911376953124,-2.5543115580916402,-5.024884510266781,6.62446256366372
1718451824329681700,19.725681640625,4.082089280647039,12.38630525818467,-9.630304422056675
1718451824379452700,19.77545263671875,-8.69633781105876,-1.4137123674362897,11.234670878773928
1718451824429223400,19.825223388671876,-3.725478320968151,1.3969137928485869,4.064841793248057
1718451824478993700,19.87499365234375,0.11559497583918273,3.024698534554243,-2.825090446706116
1718451824528764700,19.9247646484375,-0.013754959974950179,-3.920219971823692,-1.8168651519291101
1718451824578534700,19.97453466796875,-1.5709277129739523,-2.7920167368829247,-1.452425544451177
1718451824628305700,20.0243056640625,4.548927040195465,-0.6369862364172935,-1.3290662912860511
1718451824678076700,20.07407666015625,-0.07433949393033981,0.24041502227187156,-2.68180396553874
1718451824727846700,20.1238466796875,2.150872211742401,1.0826631345152855,-3.748199271342158
1718451824777617700,20.17361767578125,3.012026099985838,2.674249604636431,-7.981216195559501
1718451824827387600,20.2233876953125,2.178838807684928,1.853659197449684,-6.82327424043715
1718451824877158700,20.27315869140625,3.001219459289312,4.958090024888516,-5.648858120375872
1718451824926928600,20.3229287109375,-7.648741313749551,7.268615038448572,4.695238422141969
1718451824976699600,20.37269970703125,4.066773638093471,5.917243684113025,1.2863552768066524
1718451825026470700,20.422470703125,-7.424828513467311,-1.9143851765692232,3.6243177478685973
1718451825076240600,20.47224072265625,-1.3442723359853028,-4.354830116984248,3.8828222613215444
1718451825126011600,20.52201171875,-4.370412886041403,-4.3190930331707,5.6736137914478775
1718451825175781400,20.571781494140627,-5.043884978812932,-4.652871398794651,7.517326764422655
1718451825225552600,20.621552734375,4.507360519576072,-0.48162908596694465,-0.702488051636517
1718451825275322400,20.671322265625,6.861080531740188,4.424101806131005,-16.829601009607313
1718451825325093600,20.72109375,-2.949165446925163,-2.0403081427425147,7.00102734709084
1718451825374863600,20.770863525390624,-0.1375567053437233,4.352213212484121,8.923535624361037
1718451825424634400,20.82063427734375,-10.692810903728008,2.0505174020677805,3.580291559137404
1718451825474404600,20.870404541015624,-3.79810282767415,-2.926659016084671,6.344505804598331
1718451825524175400,20.92017529296875,-2.1876023982465265,4.244235652846098,-1.9260384972229598
1718451825573945600,20.969945556640624,1.079610761207342,-3.213168850055337,-1.362830613721907
1718451825623716600,21.019716552734376,-1.2140133864343166,-2.313817625364661,-1.0773967384196816
1718451825673486600,21.069486572265625,3.519777469202876,-1.1223913337916136,-1.2030049395553768
1718451825723257600,21.119257568359377,-0.14890519783198833,-0.05980418809950351,-1.729824435727298
1718451825773027300,21.16902734375,2.1129526693232354,0.8178320483893156,-4.21163219088316
1718451825822798600,21.218798583984373,3.207509509119391,2.127276232099533,-5.93291997667253
1718451825872568600,21.268568603515625,1.4893646975308656,2.3622306508779523,-8.618037012282013
1718451825922339300,21.31833935546875,2.3634172303140164,3.2630010947167873,-8.04256001431644
1718451825972109600,21.368109619140625,-2.8258336662888524,6.064660104691982,4.335352386315167
1718451826021880600,21.417880615234374,4.125719163537025,8.393660101619362,1.9631515455648303
1718451826071650600,21.467650634765626,-6.01108224376142,-0.7813561289072036,3.356833809146285
1718451826121421600,21.517421630859374,-1.9078610354974865,-2.961879382547736,2.778492069399357
1718451826171191600,21.567191650390626,-3.708034726475179,-4.22761360386908,4.925311206358671
1718451826220962600,21.616962646484374,-4.421113437969982,-4.4932185969769955,8.082868059307337
1718451826270732500,21.666732666015626,-0.5329239505268633,-3.8782349335312842,7.03679833317399
1718451826320503600,21.716503662109375,9.81657167455554,8.931864476767181,-24.775533125817773
1718451826370273500,21.7662734375,-0.8929436957359314,-1.3591501716434955,3.8312563247352838
1718451826420043500,21.81604345703125,-2.6420655371293424,2.6291782907664776,10.063187305033207
1718451826469814500,21.865814453125,-11.51077914571762,3.926606457990408,4.3400683089211585
1718451826519584800,21.915584716796875,-4.779467149662971,-2.044392781707644,4.433901023350656
1718451826569355500,21.96535546875,-1.9313772279024124,2.4432763644486664,-1.2101742466628551
1718451826619125500,22.01512548828125,1.0689864913403988,-2.39170224455595,-0.9447073468513786
1718451826668896500,22.064896484375,-2.449074237072468,-3.0222482187926767,-2.150274830371141
1718451826718666500,22.11466650390625,5.118789120888709,-0.8204308327108621,-1.2102606097720563
1718451826768436500,22.1644365234375,-0.5541339118160307,-0.2836480147987604,-1.77278124166131
1718451826818207500,22.21420751953125,1.5860224062532187,2.4145085351258513,-3.815770294050872
1718451826867977700,22.263977783203124,4.050395919266343,2.013756820425391,-8.583565418359637
1718451826917748500,22.31374853515625,1.3145949906021355,1.6942893042266367,-7.693686955413222
1718451826967518500,22.3635185546875,3.195853558117151,5.497354722744226,-3.3678906252115963
1718451827017288400,22.413288330078124,-7.398021170562505,6.881410203063488,4.633168334937095
1718451827067059500,22.4630595703125,3.215322813218832,5.537401486450434,2.2717612754017114
1718451827116829200,22.5128291015625,-5.887346558499336,-1.4966700521081686,3.4866529059752818
1718451827166599200,22.56259912109375,-2.2799542264685035,-4.866295538288354,4.16099622862339
1718451827216370400,22.612370361328125,-4.340288965934515,-4.904806178468466,5.643936446064711
1718451827266140200,22.66214013671875,-5.30814264896512,-4.884128132098913,8.337275366574525
1718451827315910400,22.711910400390625,5.178541286540031,0.3144143244624138,0.4384408093646168
1718451827365681200,22.76168115234375,4.20537400727123,11.031821909308434,-19.96790604959726
1718451827415451400,22.811451416015625,-2.228044591011107,-4.567581471782923,12.933681950825452
1718451827465222400,22.861222412109374,-2.787484354150295,9.733591193529962,-1.0001476406529546
1718451827514992000,22.9109921875,-5.954007772886753,-1.7202525975227354,5.548761669376492
1718451827564762400,22.960762451171874,-4.854714990609884,0.4629010046213865,1.6871984691828488
1718451827614533000,23.010533203125,2.0335586684823035,0.6648895578652619,-3.0080934367120262
1718451827664303400,23.060303466796874,0.04430851280391216,-2.465383566838503,2.07246006154567
1718451827714073000,23.110072998046874,-1.9816759210318327,-2.9682360580980776,-0.9112107354409992
1718451827763843300,23.15984326171875,4.170447947579622,-1.5070178431212902,-2.8646237079322336
1718451827813614300,23.2096142578125,0.8486303606264293,0.8221195164501667,-3.145875767505169
1718451827863384300,23.25938427734375,3.229543646273017,1.5694401047646998,-3.2870912876173852
1718451827913154300,23.309154296875,2.1512346153140065,1.930420950090885,-7.575918654122948
1718451827962925300,23.35892529296875,2.126172800902277,0.7297621352702379,-7.317362995004654
1718451828012695300,23.4086953125,3.7326223475039004,5.380946019369364,-2.7196339299783108
1718451828062465300,23.45846533203125,-6.692344259756803,9.025495531144738,4.7464966079533095
1718451828112236300,23.508236328125,0.5036719909489155,2.9818858132660386,3.3242417453601956
1718451828162007000,23.558007080078124,-5.218308648782968,-2.4397861842453477,2.3648799963429568
1718451828211777000,23.607777099609375,-2.5944012841567394,-4.957678521478176,4.441294348472357
1718451828261547000,23.657547119140624,-4.861425886425375,-4.61452793187499,6.081606563317775
1718451828311318000,23.707318115234376,-4.111979684258997,-4.40395099850595,8.670393222463131
1718451828361088000,23.757087890625,12.67161273062825,1.8563924218058585,-3.5968460958361623
1718451828410858000,23.80685791015625,5.484730218970776,8.438392392793297,-10.236116937053202
1718451828460628000,23.8566279296875,-1.9933657743036746,-2.2212749507457015,14.158282197725772
1718451828510399000,23.90639892578125,-1.74413981519714,13.393051858711242,-7.567115754464268
1718451828560169000,23.9561689453125,-6.265686534905433,0.5797784945517778,8.339487197405099
1718451828609939200,24.005939208984376,-4.321967711824178,1.080084808459878,-1.7913062016502022
1718451828659709000,24.055708984375,1.809346592992544,-0.5569330410152673,0.9317600408643484
1718451828709480000,24.10547998046875,-1.4788637617826461,-2.6936031244039533,0.5308233249858021
1718451828759250000,24.15525,-1.2977886710993944,-2.2797820847719907,-4.035187828740478
1718451828809020200,24.205020263671877,3.708288116714358,-1.4117507119745016,0.002370163197442889
1718451828858790000,24.254789794921876,2.260098310136795,1.705835365113616,-1.1811729008451104
1718451828908561000,24.304560791015625,0.13902283237352966,0.7547802566707134,-4.843454468666017
1718451828958331100,24.3543310546875,3.9914790353953835,3.2649814548790452,-7.374878195384144
1718451829008100900,24.404100830078125,4.2245024861112235,1.037644427615404,-7.356576815018057
1718451829057871000,24.45387109375,3.8641993939161297,4.763350127598643,-2.3936335048794746
1718451829107641000,24.50364111328125,-7.091813533431291,6.949494728252291,3.82382179082036
1718451829157411800,24.553411865234374,-0.6340205184794963,2.9075504109889265,1.2763494310989976
1718451829207181800,24.603181884765625,-6.267531285989284,-1.8937614907354114,3.30998467194885
1718451829256951800,24.652951904296874,-1.777469983999431,-4.65317125852406,4.059815489518642
1718451829306722000,24.70272216796875,-3.6959365846633907,-4.785994505605101,5.063985517555475
1718451829356491800,24.75249169921875,-4.483738820970058,-4.74159188477695,8.584629248198866
1718451829406262800,24.8022626953125,7.977690359520912,0.9724211370766163,-4.30096525580585
1718451829456033000,24.852032958984374,6.063266604506969,9.604334114497899,-11.51618831128478
1718451829505802800,24.901802734375,-4.4974248164951796,-8.126008112853764,12.050416768538952
1718451829555573000,24.951572998046874,9.228334563738107,13.709044392275809,0.9873504106611013
1718451829605343000,25.001343017578126,-11.65856030795574,-2.183849183192849,6.193190623015165
1718451829655113000,25.051113037109374,-3.7133226037502287,-3.764025786027312,5.026164613205194
1718451829704883700,25.1008837890625,-0.5627333247918636,6.398531409296393,-3.1773300594329834
1718451829754654000,25.150654052734374,0.001426233410835266,-3.5224843900740144,0.9003845132611692
1718451829804424000,25.200423828125,-2.9668671078324316,-2.827421812263131,-2.883723837460577
1718451829854194000,25.25019384765625,6.235138836428523,-0.9561170680075883,-1.773734304602444
1718451829903964000,25.2999638671875,-0.8981237287223338,0.1837362727165222,-3.492370699100196
1718451829953734000,25.34973388671875,2.552191497197747,1.0937556064158678,-4.913956868651509
1718451830003503900,25.39950390625,5.3538236191660165,2.6019787336736915,-5.809803884613514
1718451830053275000,25.44927490234375,1.0949813488185405,1.4181880515456198,-9.676908352321385
1718451830103044900,25.499044921875,3.515941252040863,5.4163972719788545,1.9091748945750295
1718451830152814300,25.548814453125,-5.165755454725026,8.349989886718989,4.662256482255459
1718451830202584300,25.598584228515627,-0.9395192766889929,1.4924831218123435,2.1390993563622236
1718451830252354300,25.648354248046875,-4.664797983431816,-3.01108969591856,1.1343787087053059
1718451830302124500,25.69812451171875,-3.447925992695987,-4.590762440884113,4.123851323838532
1718451830351894300,25.747894287109375,-4.9011552547454835,-4.1088124523997305,6.8874974140226835
1718451830401664500,25.79766455078125,-4.552182827121019,-3.856190859505534,8.265100941723585
1718451830451434500,25.8474345703125,10.651501572740077,3.120078478425741,-3.36648543458879
1718451830501204500,25.89720458984375,3.345338017141819,9.640705404561757,-11.128272697281837
1718451830550975200,25.946975341796875,-6.090185006570816,-6.386201504555344,12.553556844568252
1718451830600745500,25.996745361328124,3.0930887646913527,16.03386447317004,-6.928042190378904
1718451830650515200,26.04651513671875,-6.9512792735815045,-2.2368536281496283,5.736611222630739
1718451830700285400,26.096285400390624,-2.1175310831546783,0.27266660205721854,1.611135804721713
1718451830750055400,26.146055419921876,-1.1431705024480818,0.02694529007077217,-1.1524883658915757
1718451830799825400,26.195825439453124,-0.42731122032403945,-2.5977672534584997,0.9580793079912662
1718451830849595400,26.245595458984376,-1.447285551214218,-1.9371347685158251,-2.32931315452978
1718451830899365400,26.295365478515624,4.3950937383115285,-1.6037953788310289,-0.030693244427442548
1718451830949135400,26.34513525390625,0.8533351773165165,0.6541203265696763,-3.5594156521081923
1718451830998905300,26.3949052734375,0.9647644848436117,1.361767660665512,-4.707909103144705
1718451831048675300,26.44467529296875,2.794438995593786,2.3555238467156885,-8.834071626535058
1718451831098445300,26.4944453125,3.005602788940072,0.4242266983121633,-8.794127154159545
1718451831148215600,26.544215576171876,1.9573650711178778,5.116396672794223,-0.6051511284783482
1718451831197985500,26.593985595703124,-5.758846435314417,9.031121554332971,5.106187997990847
1718451831247755500,26.643755615234376,0.04475114200487733,2.2768618134111165,2.9134093661502
1718451831297525800,26.69352587890625,-3.3039187960386274,-2.8090222322195766,1.1729761503860354
1718451831347295500,26.74329541015625,-3.1127395138397813,-4.064252010661363,4.7087382474452255
1718451831397066500,26.79306640625,-4.51889985846132,-4.503242562863231,5.950687104031443
1718451831446836700,26.842836669921876,-5.063224470055103,-4.1460716312140224,8.553092538684606
1718451831496606500,26.8926064453125,7.5898460571885105,1.7686282136350868,-1.3422624574676156
1718451831546376700,26.942376708984376,3.523898933047056,6.836933347955346,-18.340148195898532
1718451831596146700,26.992146728515625,-3.7550977986842393,-3.270904999709129,11.567166803371906
1718451831645916700,27.041916748046877,0.8197463575780392,10.949605398392677,-2.1231913008734584
1718451831695686700,27.091686767578125,-7.6860443317055696,-1.7192659245729445,6.057095806917548
1718451831745456600,27.14145654296875,-2.3151555959701535,0.5869821423202752,1.9261942723065613
1718451831795226600,27.1912265625,-1.5066659609436988,0.5547878456801175,-1.5682687228977679
1718451831844996600,27.24099658203125,-0.5155272639155387,-2.612490775337815,1.540594387900084
1718451831894766600,27.2907666015625,-1.2020897244066,-1.9311866737663745,-2.967713203267753
1718451831944536600,27.34053662109375,4.076999848553538,-1.1217828465044497,-1.1144763959486037
1718451831994306600,27.390306640625,1.651055288786441,0.817344557133317,-2.894026912549138
1718451832044075800,27.44007568359375,1.3140455400258302,1.0976461841136216,-5.646537568473816
1718451832093845500,27.489845458984377,3.8891941344410177,2.2990923499196767,-9.257039264696836
1718451832143615500,27.539615478515625,3.1551620667666196,1.5082739806622265,-6.553412758928537
1718451832193385500,27.589385498046877,3.3830396790266035,5.521045979455113,1.7843879466943442
1718451832243155500,27.639155517578125,-4.0381846724689,7.848143942153453,4.033190517443418
1718451832292925400,27.688925537109377,-1.381704533278942,2.0229805758446453,1.6490224677845835
1718451832342695400,27.7386953125,-4.8522386636242265,-1.8457500317603348,1.816247166161239
1718451832392465400,27.78846533203125,-3.1528678183495997,-4.753144959926605,5.134419236218929
1718451832442235400,27.8382353515625,-4.4728255050286645,-4.653120989641547,6.105165718081593
1718451832492005400,27.88800537109375,-4.6066050299212336,-4.384887401595711,8.108399975448846
1718451832541775400,27.937775390625,13.706085542470216,2.7765514567255973,-4.247994713118672
1718451832591545300,27.98754541015625,5.176390245985984,6.94315500383675,-4.524796807545424
1718451832641315600,28.037315673828125,4.866744451099634,-1.531955300500989,14.452068744701146
1718451832691085300,28.087085205078125,-15.232562119299173,6.432934029635787,0.5024865805566311
1718451832740855600,28.13685546875,-5.604534994524717,2.92666076965034,6.8663622715353965
1718451832790625300,28.186625244140625,-2.0062861922837794,1.8609166212320327,-2.117050021639466
1718451832840395500,28.2363955078125,-0.9910615401387214,-1.124887826782465,-0.36449148379564283
1718451832890165200,28.286165283203125,1.0231295800507068,-2.763854472237825,1.9867437258154153
1718451832939935500,28.335935546875,-2.058952052935958,-2.712830387443304,-4.153157790082693
1718451832989704400,28.385704345703125,6.770100284132361,-1.0137199466705322,-1.9752650310762225
1718451833039474400,28.435474365234374,-0.7068968079894781,-0.37533494937121864,-2.5911586489737033
1718451833089244400,28.485244384765625,1.9255830085404215,1.6284212860435245,-1.959584208472073
1718451833139015200,28.53501513671875,3.260572990787029,2.5898504889845846,-8.661400937712193
1718451833188785200,28.58478515625,2.37689455152452,0.618161708959937,-7.442583950388431
1718451833238555100,28.63455517578125,1.8716425979077815,5.042275205528735,-1.5526586274422705
1718451833288325000,28.6843251953125,-7.62293116518855,7.809550299865007,4.057987105047703
1718451833338095000,28.73409521484375,2.906677719807625,2.736661344885826,0.8293263790890574
1718451833387865000,28.783864990234374,-4.907332482075691,-1.3023773140639066,2.7816034794181586
1718451833437634300,28.83363427734375,-2.4689728235021233,-3.29546544046998,6.0592322344243525
1718451833487404000,28.883404052734374,-4.5633901575729245,-3.159741211250424,6.434483012643456
1718451833537174300,28.93317431640625,-3.9588746966496107,-2.6984318597346544,7.75760383952856
1718451833586944000,28.982944091796874,2.719799641934037,-1.6334458362072706,1.8380282053366301
1718451833636714200,29.03271435546875,7.767629558980465,7.768352028036117,-22.145215017366407
1718451833686484200,29.082484130859374,-0.8393389467984438,-4.193778554284572,8.527949329599737
1718451833736254200,29.132254150390626,2.8817221422493455,6.236034908485412,4.05939171114862
1718451833786024200,29.182024169921874,-9.980513697999715,0.6216852069109677,0.9337234498918056
1718451833835793000,29.23179296875,-2.217153633031994,0.4028752827256918,6.985767818638682
1718451833885563100,29.281563232421874,-1.4812556253552436,1.8131038996994495,-1.2491451978310941
1718451833935333400,29.33133349609375,0.317845467954874,-1.7021791806936264,1.163260958188027
1718451833985103000,29.38110302734375,-0.8067109349161387,-2.9397055446624756,-1.6368341634713113
1718451834034873300,29.430873291015626,2.789986107838154,-0.9866203428208827,-3.064052055299282
1718451834084643000,29.48064306640625,-0.5289478865027427,-1.3232704644888638,-0.8895477696873247
1718451834134411300,29.530411376953126,5.485911537709832,1.361684074035287,-2.655632290188968
1718451834184181500,29.580181396484374,-0.3506365614444017,-0.6964104852885007,-6.84621204843223
1718451834233951200,29.629951171875,2.5731816782563923,3.048011021080613,-8.937415096631646
1718451834283721500,29.679721435546874,3.245916104403138,3.4139725774288174,-6.055272098621725
1718451834333491200,29.7294912109375,-7.025864266705512,6.783196497070789,3.93902287197113
1718451834383261400,29.779261474609374,5.930721589845419,8.262458902782202,-0.06642419076114893
1718451834433030400,29.829030517578126,-7.070261042314767,-0.26895371901392934,3.1441119727030395
1718451834482800400,29.87880029296875,-3.0717662829384205,-4.1590363267272705,4.469595144805312
1718451834532570400,29.9285703125,-3.2745930405721064,-5.230743767464161,4.425393891768157
1718451834582340400,29.97834033203125,-5.963457153755426,-3.5655683295190332,6.355770710456371
1718451834632110300,30.0281103515625,0.7379913266941904,-2.347149401602149,3.647937985169887
1718451834681879300,30.07787939453125,19.543822559148072,6.045370882332325,-10.818048225724697
1718451834731649300,30.127649169921874,1.2134572138562798,-0.9505892444968222,-0.18594693450331687
1718451834781419300,30.177419189453126,-6.870977656376361,1.9142630114942787,8.93841287549734
1718451834831189500,30.227189453125,-13.820806146627664,2.430283611884713,5.010588858410716
1718451834880959200,30.276959228515626,-5.322338347578048,-2.2605068909376858,5.930502978658676
1718451834930728400,30.326728515625,2.8781343468904494,3.167841515597701,-2.210336208102107
1718451834980498400,30.37649853515625,-1.479721839916706,-1.9887503894627092,-0.8947535216368734
1718451835030268400,30.426268310546874,-2.7672914609491825,-3.551244036090374,-2.1341922950983045
1718451835080038400,30.476038330078126,5.097459917134047,-0.3205699244827032,-0.9120640643347054
1718451835129808600,30.52580859375,-0.5750694400779902,-0.21269582521915434,-2.179454016973823
1718451835179577900,30.575577880859374,2.894588053563237,1.2852338715612888,-3.0247260070830584
1718451835229347600,30.62534765625,1.6511358066767454,0.44314474927186964,-8.847892062094807
1718451835279117800,30.675117919921874,0.7213176936604082,2.0427789167702195,-7.5125173183143135
1718451835328887800,30.7248876953125,0.22388540081866085,3.7736727352946993,-7.3323594886064525
1718451835378656800,30.77465673828125,-5.959390050446987,7.157922374632954,4.39080217859745
1718451835428426800,30.8244267578125,4.158215073472261,7.070864853426814,1.7005349206179379
1718451835478196700,30.87419677734375,-6.41989159271121,-1.3498761473417282,3.1836952105507255
1718451835527966700,30.923966796875,-1.5934674615621567,-3.944758200752735,3.52851665597558
1718451835577737000,30.973737060546874,-4.183641775673627,-4.1562616013169285,5.377715366885066
1718451835627505700,31.023505615234374,-6.509463727086782,-3.3463024782598016,6.937655237376689
1718451835677275600,31.073275634765626,1.613649833369255,-1.4228139577805996,3.4071655277624724
1718451835727046000,31.1230458984375,11.938092704129218,5.21634640879929,-18.715292006611822
1718451835776815600,31.172815673828126,-0.413432624836266,-2.3055822964608668,3.997205888609588
1718451835826584800,31.222584716796874,-2.2990680922612547,7.243195350509882,2.1727099495410918
1718451835876354800,31.272354736328126,-10.668472581285238,-1.8821178146928548,6.544747806435823
1718451835926124800,31.322124755859374,-3.2869489565372465,4.415934866288304,2.8435172070175407
1718451835975893800,31.371893798828125,1.2128268069982528,-0.47852352116703983,-1.69681969948709
1718451836025663700,31.421663818359374,-0.6750280900418758,-2.832992890393734,0.5465380498595536
1718451836075433700,31.471433837890626,-1.4108599006146192,-2.5599732371151447,-1.759140108191222
1718451836125204000,31.521203857421874,4.518509690099954,-0.690550068822503,-0.9866131824277341
1718451836174973000,31.570972900390625,0.054392099922895426,0.5103501535385847,-2.1990838694646953
1718451836224743000,31.620742919921874,2.4256162045955656,1.007608770313859,-2.560351130516827
1718451836274513000,31.670512939453126,1.9210862816430627,2.605681679844856,-7.489362068176269
1718451836324283100,31.720283203125,0.6136199738770723,0.23327859452068805,-7.6326535177797075
1718451836374052000,31.770052001953125,2.3442747229486702,1.2219237211674452,-7.200087445667386
1718451836423821800,31.81982177734375,-5.356750320267677,6.260946646901965,3.7575109973058103
1718451836473592000,31.869592041015625,5.75641482425332,10.454212575489281,1.4517080438315868
1718451836523361000,31.919361083984374,-7.778031710529327,-1.257459729450941,3.1683623246014117
1718451836573131000,31.969131103515625,-0.4963102300092578,-2.9663924760580063,4.110369618713856
1718451836622901000,32.01890087890625,-3.319960414779186,-3.041026569020748,4.882084643572568
1718451836672671000,32.0686708984375,-4.846285015916824,-4.3110055883049965,8.599397778263688
1718451836722440000,32.11843994140625,0.9763815651401877,-2.590655375626683,7.780162877339124
1718451836772210200,32.168210205078125,3.6045781513929365,8.980012713864445,-27.81122651711702
1718451836821980000,32.21797998046875,-2.9704326913595196,-3.535801552286744,4.482123202466965
1718451836871748900,32.26774877929687,-5.033667536181211,2.478949150854349,10.000956766569614
1718451836921519000,32.31751904296875,-11.308299594086408,2.378002220505476,3.877192146480083
1718451836971288800,32.36728881835938,-3.806288472217321,-2.3728929146677253,5.413227409771085
1718451837021058000,32.41705810546875,1.73814831969738,2.1978975822895763,-2.1137693925336003
1718451837070828000,32.466828125,-0.39565702190995217,-2.760195949730277,0.5934155363686382
1718451837120598000,32.51659790039062,-2.5207804598897696,-2.9813024604201317,-2.9899919628322125
1718451837170366700,32.56636669921875,5.629246826454997,-0.2882826888620853,-1.722732139378786
1718451837220137000,32.61613696289062,-0.35590310367047784,-0.45056350109577176,-1.304782329379022
1718451837269907000,32.66590698242187,1.6896072838902472,1.509645853537321,-3.806042388501763
1718451837319676000,32.71567602539063,2.3239335073180496,1.1579624133884907,-7.958921946164965
1718451837369446000,32.76544580078125,1.6369284176260233,2.402045943915844,-6.979127065449953
1718451837419216000,32.8152158203125,5.431963089901209,5.717675636014342,-1.1345184094369412
1718451837468984800,32.86498486328125,-6.4718883219301695,6.5470104906708,5.071687762495875
1718451837518755000,32.914755126953125,0.18188479963093995,3.201648508131504,1.3552560868144035
1718451837568524800,32.96452490234375,-5.255104301738739,-1.1466098292469977,2.7576404200285674
1718451837618294000,33.0142939453125,-1.8584163288488984,-4.444030495437979,4.039026676250994
1718451837668064000,33.06406396484375,-3.76883201726526,-4.600250984719396,5.344302926626801
1718451837717834000,33.113833984375,-3.951443669866025,-4.75378734948337,8.083138108420371
1718451837767603000,33.16360302734375,6.541696602171659,-1.468578514611721,-0.3889417421802878
1718451837817372700,33.21337255859375,5.636281547397375,9.724276252695917,-21.079444565463064
1718451837867143000,33.26314282226563,-1.4423559858575463,-0.5834767645478248,13.469998320269584
1718451837916911900,33.312911865234376,-2.021867207775265,12.427334018665551,-5.257704839625954
1718451837966681900,33.36268188476563,-6.357044968175888,-0.838523538762331,9.168973443230986
1718451838016450800,33.412450927734376,-4.877101009941101,3.0824510508209464,-1.0257856475174427
1718451838066221000,33.46222094726563,2.794064901584387,-0.8509995739758014,-1.5162527044564484
1718451838115990800,33.51199072265625,-0.584332504594326,-2.2048346880763767,0.3201747876852751
1718451838165759200,33.56175927734375,-1.657158720228076,-2.008949127882719,-2.940560700187087
1718451838215529200,33.611529296875,4.628053183880448,-1.108173423346877,-1.460140941134095
1718451838265299200,33.66129931640625,1.896048286498338,0.2560509828209877,-1.0169954612098633
1718451838315068200,33.711068115234376,1.063967932526022,1.4365186580061913,-3.7056630289077757
1718451838364838400,33.76083837890625,2.901154572471976,-0.77244801530838,-8.823775273448229
1718451838414608100,33.81060815429687,2.379483545104414,2.8638001165896654,-8.661140825471282
1718451838464377000,33.86037719726563,0.4171381282906979,3.5274732844024896,-6.570767798355221
1718451838514147300,33.91014721679687,-2.85985634739995,8.952510374432801,6.448934147322177
1718451838563916300,33.95991625976563,3.519485792779922,5.787608419418334,2.7235765301242467
1718451838613686300,34.00968627929687,-6.51247050768733,-1.1033359201878308,3.893953603927791
1718451838663456300,34.059456298828124,-1.492187353736162,-4.0125948886603116,1.780150016863644
1718451838713225500,34.1092255859375,-5.601039553624391,-4.216268618512153,5.4171548123478885
1718451838762995200,34.1589951171875,-4.711519987118244,-4.365744894230366,8.611836404076218
1718451838812764200,34.20876416015625,0.5664179315887391,-2.183369875243306,6.963541373783349
1718451838862534400,34.258534423828124,4.186438128393888,9.275854439803958,-28.57224596043825
1718451838912304000,34.30830419921875,-0.45020811178684234,-4.348211575627326,3.901552973015606
1718451838962073300,34.3580732421875,-3.8413293904602526,4.5576042676478625,9.304696503406763
1718451839011843300,34.40784326171875,-11.2867178768754,0.8682277721524239,6.5288727764338255
1718451839061612300,34.4576123046875,-4.170328705114126,-1.7511153532981871,5.167357629224658
1718451839111382300,34.50738232421875,-2.1027578769147395,2.9640719241559506,-0.7804100802287459
1718451839161151200,34.55715112304687,1.0606897876381873,-2.962428248602152,0.08612287070453166
1718451839210921200,34.60692114257812,-2.1395307335168123,-2.4171079039692875,-2.0821916203565896
1718451839260691200,34.656691162109375,5.195628614941239,-1.2812901023715735,-2.669669875630736
1718451839310460400,34.70646044921875,-0.18696239515617488,0.28145781127810476,-1.431289525181055
1718451839360230100,34.756230224609375,2.05493814111948,0.8472785076260566,-5.041743290609121
1718451839409999400,34.80599926757812,4.550958838284015,1.7759838370949028,-8.100732801821827
1718451839459769300,34.855769287109375,1.6688386366277932,2.0051152488082646,-6.723949358332157
1718451839509538000,34.9055380859375,3.342918681040406,5.3339072048187255,-5.470153996607661
1718451839559308300,34.955308349609375,-6.791617119413614,8.75057209007144,4.230350335356593
1718451839609078300,35.00507836914063,1.0037608627140522,4.105302982974052,2.3322733195096252
1718451839658847200,35.05484716796875,-6.303758783668279,-1.9499077408492564,3.4698727438271044
1718451839708617200,35.1046171875,-1.2773441412247717,-4.271718118533492,4.5229035411447285
1718451839758386400,35.154386474609375,-5.216989967399836,-5.179366046926379,6.608302871501445
1718451839808156200,35.20415625,-4.022066773621738,-5.667757466635107,8.98837663758397
1718451839857925000,35.25392504882812,14.569710789263247,1.2718325381964444,-6.3162693056732415
1718451839907695400,35.3036953125,8.017555921441316,8.046740514871477,-5.666241216853261
1718451839957465000,35.353465087890626,-0.007448854701220989,-3.620546704897284,14.918380434548855
1718451840007234300,35.403234375,-6.708358990490436,11.145936948788165,-7.716173512509465
1718451840057004300,35.45300439453125,-4.666277116073668,2.387242927059531,7.670961328864097
1718451840106773500,35.5027734375,-4.583386651419103,0.08304185582399368,0.9066407971769571
1718451840156544300,35.55254418945312,0.17943419160842894,1.106481816998124,-1.327774205648899
1718451840206313200,35.60231323242188,0.8608639653861522,-3.121952455604076,0.9893998905368149
1718451840256083200,35.65208325195312,-2.7516701134473083,-2.4292776497125623,-2.0522516785144806
1718451840305852200,35.70185205078125,6.953714391773938,-1.2182868259698152,-2.843392119333148
1718451840355622100,35.7516220703125,-0.012367752533406018,1.4104963279992342,-2.2435972571909426
1718451840405391000,35.80139111328125,0.18921148925721645,1.0837988605469464,-5.320525745198131
1718451840455161000,35.8511611328125,4.815185528776049,3.228801303473115,-7.907631319388747
1718451840504931300,35.900931396484374,2.5385838276058434,0.9335106839239596,-7.520545726469159
1718451840554700000,35.95069995117188,3.9792409005910154,4.6855186998993155,-2.0868457297727465
1718451840604470000,36.00046997070312,-7.134265020191669,6.985188557446002,3.8552684839636084
1718451840654239200,36.0502392578125,1.1091758783876895,4.118085892179608,2.368486496402323
1718451840704009000,36.10000903320312,-6.662627166885137,-1.6250439185649155,3.5726477663859724
1718451840753778200,36.14977807617188,-0.372615169018507,-4.284854078960419,3.8032425286501645
1718451840803548200,36.19954809570312,-4.4184743216380475,-4.837461073470116,6.151189218109845
1718451840853317000,36.24931713867188,-4.1150738508820535,-4.917315531429648,8.80980169315338
1718451840903087000,36.29908715820312,9.338111281752585,1.5897504868656396,-4.020915265499055
1718451840952856000,36.34885595703125,6.839653128308058,9.735784904181957,-11.139565660190582
1718451841002626300,36.39862622070312,-2.662737738279998,-6.817201058003306,13.009282842993736
1718451841052395000,36.44839501953125,-0.40119215194433927,14.342731587147712,-3.307401669718325
1718451841102165200,36.49816528320312,-6.8278621527493,-1.9303338563293218,6.858938843536377
1718451841151934200,36.54793432617188,-2.9744834280550476,-0.6427116283267736,2.925189528053999
1718451841201704000,36.59770385742188,-1.8707599698543547,2.5396447348356244,-1.8504504645362496
1718451841251473000,36.647472900390625,1.0681687452167272,-4.150374881365895,0.20245397879853844
1718451841301243100,36.6972431640625,-1.9315519999474287,-2.5844734721213576,-1.6982804196894168
1718451841351012000,36.74701220703125,3.9052018509119746,-0.9216922358363866,-1.555232131192088
1718451841400782000,36.79678198242188,3.9019893186062573,0.7112731233775615,-3.928452378118038
1718451841450551000,36.846551025390625,-1.9873738404124974,1.3235609718680381,-7.811305034577846
1718451841500321000,36.896321044921876,4.442992384561896,1.4848679706335066,-7.065027817836404
1718451841550090000,36.946090087890624,4.798302783036232,1.100739473953843,-5.746310778868198
1718451841599860000,36.99585986328125,2.9863544831126925,5.860267412915825,1.5213687322959304
1718451841649629200,37.045629150390624,-1.2819114491403103,9.595011574879289,3.7861812114730475
1718451841699399000,37.09539892578125,-2.308827415861934,2.1446219191759823,3.6575033936336636
1718451841749168000,37.145168212890624,-4.278897800904512,-3.549800267022848,2.3524358175724744
1718451841798938000,37.194938232421876,-2.049251912176609,-4.68280710285306,5.023396317535639
1718451841848707000,37.24470703125,-4.980744924288988,-5.077060687705874,6.353417425328493
1718451841898477000,37.29447705078125,-3.2569653216838836,-4.635133497530222,8.183798038521408
1718451841948246000,37.34424609375,22.97705513284206,6.826886585715413,-15.431502975410222
1718451841998016000,37.39401611328125,1.403554838298261,2.0942308715879916,1.52421330807209
1718451842047785000,37.44378491210937,-0.004727759174257516,-3.055851797708869,17.90379559098482
1718451842097555200,37.49355517578125,-8.612866916167736,16.38303330014944,-7.649016039037704
1718451842147323600,37.54332373046875,-4.993751705378294,-1.576468980488181,6.2221454993426795
1718451842197093600,37.59309375,-2.9179800350666043,1.9463252061873673,1.1907511687904595
1718451842246862600,37.64286254882813,1.3877648562312126,-0.30522213322520253,-1.0704565638929604
1718451842296632600,37.69263256835937,-0.9129337598413229,-4.136775395080447,0.29351956660225986
1718451842346401800,37.74240185546875,0.7072288164228201,-1.4647393748402595,-3.08222016467452
1718451842396171500,37.79217163085937,0.7271826401710509,-1.2988111460149288,-1.3752949584975838
1718451842445940700,37.84194067382813,6.324480084657669,0.6915718130856752,-4.237143356497586
1718451842495710700,37.89171069335937,-0.984585037600994,-0.31895255241394044,-8.304034775751829
1718451842545479400,37.9414794921875,3.381373207119107,2.156927273997664,-8.051636470219492
1718451842595248600,37.99124853515625,3.282477948603034,2.8605080893069506,-5.766396120041608
1718451842645018600,38.0410185546875,-6.566855593347549,7.217375265076756,5.286598925676942
1718451842694787800,38.090787841796875,6.183928289151192,11.069591375732422,1.0351777452409268
1718451842744557600,38.1405576171875,-6.659607526803017,-0.456391184335947,4.866735683271289
1718451842794326500,38.19032641601562,0.136350544424355,-4.531500689098238,2.7928768608435988
1718451842844096800,38.2400966796875,-4.487164119243621,-4.9554707823008295,5.869281324976682
1718451842893865500,38.28986547851562,-5.266936193829775,-5.736741571012139,8.17672649269998
1718451842943635700,38.3396357421875,1.1731135130301118,-1.9341075296491383,5.682316153341532
1718451842993404700,38.38940478515625,4.648296638225019,12.544337765324116,-35.18051843680143
1718451843043174700,38.439174560546874,-5.207480965298414,-3.2413907359331846,10.032343253958224
1718451843092943600,38.48894360351562,8.339350419282912,9.127968648147583,7.811840456628799
1718451843142712800,38.538712890625,-10.889333008259534,-0.8910609507292508,3.679655604209006
1718451843192482800,38.58848291015625,-2.705159414424002,3.715268477120995,1.5238316152781248
1718451843242251800,38.63825170898438,-0.2943137857198715,-0.39341304237544533,-1.4988666853696107
1718451843292021800,38.68802172851562,0.7790706483185291,-2.0326333703309296,1.684428712208569
1718451843341790700,38.73779077148438,-3.2470524149566886,-3.210340933153033,-1.3197894905053078
1718451843391560700,38.78756079101562,5.666254076334834,-0.9563362637162208,-2.3580492735400793
1718451843441329700,38.83732958984375,-1.6731220130354165,0.5069616801440715,-2.4151732826448975
1718451843491098600,38.8870986328125,3.3418256251066922,1.3379589150547981,-3.951552098676562
1718451843540868900,38.93686889648438,3.6075954533874985,1.6192057139307259,-9.480362866914271
1718451843590637600,38.98663745117187,1.3748755640417336,1.986703393805027,-7.738572975844145
1718451843640407800,39.03640771484375,3.996573143664002,4.926421213427186,-3.7518688997656104
1718451843690176800,39.0861767578125,-6.327147842562198,7.713444379806518,3.865851252776384
1718451843739946800,39.13594677734375,-0.6470540414452552,3.8921728579908605,2.7082532887861133
1718451843789715700,39.1857158203125,-5.851259346073865,-2.272972989279032,3.2810613598033784
1718451843839484700,39.23548461914063,-1.6536068729653954,-4.97505226560533,3.70876976275146
1718451843889255000,39.2852548828125,-4.251940820395946,-4.688422604647278,5.830916815268993
1718451843939023600,39.33502368164063,-4.585331063485145,-4.330927263349294,8.959109626567363
1718451843988793900,39.3847939453125,13.572782987439632,1.8525608808189629,-5.391805851557851
1718451844038562800,39.43456274414063,4.588149628037214,8.293805642682313,-4.819701544895768
1718451844088331800,39.484331787109376,0.33159576088786125,-0.6790536922961473,16.104758795082567
1718451844138101500,39.5341015625,-6.553032819700241,6.647414400184154,0.9310431247666477
1718451844187870700,39.58387060546875,-6.491774341139197,1.6575602867662906,6.677363548246026
1718451844237640700,39.633640625,-1.8608045391596852,1.7566542827248572,-3.6779812412559982
1718451844287409700,39.68340966796875,-0.8263035241365432,-0.7268126378148794,-0.6241743933781981
1718451844337178600,39.7331787109375,-0.23161678052200002,-3.976673680451512,1.6886442840769886
1718451844386948600,39.782948486328124,-1.2636579995691775,-1.7238532523632049,-2.3720449195362625
1718451844436717800,39.8327177734375,4.278946900743246,-1.2308382645070552,-1.3786635581478475
1718451844486486800,39.88248681640625,2.188842169174552,1.1315940464228391,-4.007573261106014
1718451844536256500,39.93225659179687,-1.9614356815576552,0.42092239606976506,-6.135043554472923
1718451844586025700,39.98202563476563,6.249890999880432,2.7575673547923563,-7.837008215633034
1718451844635795700,40.03179565429687,3.262176918852329,0.9151865072041749,-6.889146934795379
1718451844685564400,40.081564453125,-1.686000783830881,6.229709797117113,3.518815053911507
1718451844735333600,40.131333740234375,1.6533179730214178,10.79422662063241,1.8642536567002534
1718451844785103600,40.181103515625,-4.064702092516422,1.129212704244256,4.365808314855396
1718451844834872800,40.230872802734375,-2.5148817572399973,-3.6593010907053944,2.9629224618598817
1718451844884641500,40.2806416015625,-3.511854274988174,-4.241061698985099,4.8462668957382435
1718451844934411500,40.33041162109375,-5.368985532462597,-4.992445298954844,7.226584407448768
1718451844984180700,40.3801806640625,-1.5838447699531912,-3.869723710295558,8.41054284735918
1718451845033949700,40.42994970703125,15.121065737885235,9.573325812771916,-24.66345456060171
1718451845083719700,40.4797197265625,-2.8139304625272747,-2.4261750075221062,3.2529107855960726
1718451845133488000,40.529488037109374,2.220483215846121,-0.7173053892791271,18.533886807191372
1718451845183258000,40.579258056640626,-10.653865379261969,14.660263751369714,-5.400688830715418
1718451845233027300,40.62902734375,-5.22483425115943,-2.988368161022663,6.9581672795295715
1718451845282796000,40.67879614257812,-3.478495610743761,3.3847534972071647,0.18353139779418706
1718451845332566000,40.72856591796875,3.2292987316012383,-1.3031868768811226,-2.0475144208595157
1718451845382335200,40.77833520507812,-2.349682134950161,-4.463011674761772,-0.11125950391814111
1718451845432104200,40.82810424804688,1.4992010318905113,-0.4402613027900457,-2.589607327878475
1718451845481874200,40.87787426757812,0.5244989442698658,-1.6543091760158537,-0.9629993748672306
1718451845531643100,40.92764306640625,4.689873387977481,1.046471877193451,-2.8722406126767397
1718451845581412000,40.977412109375,-2.438548313013464,0.029625322934985158,-5.628423819634318
1718451845631181300,41.02718139648437,4.781939092734456,2.4421032290160656,-7.235140638870001
1718451845680951000,41.07695092773437,3.131771838828921,0.6942828256100416,-8.543976335293054
1718451845730720000,41.12671997070313,1.476314077299833,6.042831719243526,2.979815436732769
1718451845780489200,41.1764892578125,-1.8308029302582143,9.107730162239074,2.814213663382828
1718451845830259200,41.22625927734375,-3.0287989556103945,1.2990519690334796,2.975481206920743
1718451845880028200,41.276028076171876,-4.55057656096816,-2.57538649482429,3.7099516660124063
1718451845929797000,41.325797119140624,-2.6472572605535385,-4.708112809023261,4.363770963808894
1718451845979567000,41.375567138671876,-4.999086052143573,-4.7575054932236664,6.803516816043853
1718451846029336300,41.42533642578125,-2.7992703612729906,-3.9640713885098693,8.30632843964696
1718451846079105000,41.47510498046875,18.002464055007696,5.41870028822422,-13.233256433552503
1718451846128875000,41.524875,2.8932933375775813,2.9557500860124826,-0.33980040239244697
1718451846178645000,41.57464501953125,1.9557903691470622,-2.00728733215034,15.412350531172752
1718451846228414000,41.6244140625,-4.568869173505902,12.462843723464012,-9.663338092130422
1718451846278184000,41.674183837890624,-6.07486585688591,-0.39848435429036616,7.963163236996531
1718451846327953200,41.723953125,-4.2079742528975,1.8142139067679643,0.6243599790781736
1718451846377722000,41.77372216796875,2.489834117484093,-0.10096505052745341,-2.2527456092864275
1718451846427491000,41.823490966796875,-0.8295978895068168,-3.5126778663307427,0.4626449840337038
1718451846477261000,41.87326098632813,-1.7437416096597909,-2.1980431282401085,-2.591651985448599
1718451846527030000,41.923030029296875,5.352561051884293,-1.2023773091763257,-0.6791389594268054
1718451846576799000,41.97279907226562,1.2642391604579983,0.6318728389263153,-3.6761160319060084
1718451846626569000,42.02256884765625,0.11425590925514698,1.3706594076514242,-4.962050160691142
1718451846676338000,42.072337890625,4.955055771759152,2.0409891107439995,-7.864289605790376
1718451846726107100,42.12210717773438,1.3703122016489504,0.8959241728514432,-7.417481073313951
1718451846775877000,42.17187719726562,3.247787743493914,4.484367766523361,-2.8764611529812214
1718451846825645800,42.221645751953126,-6.4248389859855175,7.302647071909904,4.32002593010664
1718451846875415000,42.2714150390625,0.997751977688074,3.5503619925588366,1.9825687782183288
1718451846925184000,42.32118408203125,-5.63964722443819,-1.8893793301284312,2.1279817500203846
1718451846974954000,42.3709541015625,-2.0534262752518058,-3.461512327238917,3.375463398553431
1718451847024723000,42.42072290039062,-4.262998805505037,-4.067350561198592,6.34254940983355
1718451847074492000,42.47049194335938,-4.464514772801101,-4.37412810717225,8.50832400715351
1718451847124260900,42.5202607421875,6.389870548456907,-0.4081728046119213,0.9813397720694541
1718451847174030000,42.57003002929687,3.518835804438591,10.724141277015208,-21.350545817899704
1718451847223799300,42.61979931640625,-2.874554150316119,-4.353234372225404,11.972559621876478
1718451847273568300,42.669568359375,-1.2487255111142992,12.490323266541957,-4.252129620966315
1718451847323338200,42.71933813476563,-6.747952165210247,0.07120470303595065,7.920206138801574
1718451847373107200,42.76910717773438,-3.537074056440592,1.98809630946815,0.5863023433625698
1718451847422876200,42.818876220703125,1.1218996778171508,0.20198621515631673,-1.8226783682525156
1718451847472645400,42.86864526367187,0.1301180706424173,-3.1317595638692377,0.23298428774923086
1718451847522415000,42.9184150390625,-1.6312661540806292,-2.4974644662320613,-2.149721580402553
1718451847572184000,42.96818408203125,4.585940135294199,-1.136943006235361,-1.7800982866764068
1718451847621953300,43.01795336914063,0.4829086043834686,0.5362883123934269,-2.3820624556817114
1718451847671722200,43.06772216796875,0.9332003028005361,1.2121914317041635,-4.228441579125821
1718451847721492200,43.1174921875,4.954474757000804,2.636299520948529,-8.323723226562143
1718451847771261200,43.16726123046875,2.019149473249167,0.9044254592150449,-7.822419718310236
1718451847821030100,43.21703002929687,3.8865281301021573,4.589387645399571,-1.4771693789549172
1718451847870799000,43.26679907226563,-6.361918711692095,7.9112699681520455,3.2187656471490858
1718451847920569000,43.31656909179687,-0.4722868187345564,3.4901188285201785,2.498214992338419
1718451847970338000,43.36633813476563,-6.048321548831463,-2.639313315811753,2.4267300110563634
1718451848020107300,43.416107177734375,-2.0160173127032817,-4.781877717936038,4.114601557195186
1718451848069876200,43.46587622070312,-4.564280384410917,-4.652877244013547,5.986831015080213
1718451848119646000,43.51564599609375,-4.579494027894735,-3.8277673135757446,8.658165024530888
1718451848169415200,43.56541528320312,10.417408739227056,2.128706557163596,-5.512088181495666
1718451848219184400,43.61518432617188,6.300394275671243,5.406943214935064,-9.557555412188172
1718451848268953300,43.664953369140626,-2.9053236748501656,-3.851177415257692,10.925789638519287
1718451848318723300,43.71472338867188,4.489172828717529,15.424973865902423,-7.8522730047822
1718451848368492300,43.7644921875,-7.764391307711601,-2.3812369646430014,8.641386908209324
1718451848418261200,43.81426123046875,-3.3072190066277978,1.9965899970471859,1.766143703342974
1718451848468030200,43.8640302734375,1.3479659298062323,0.7953682876467705,-3.1244422265931964
1718451848517800400,43.913800537109374,-0.23805764549076555,-4.1638153776973486,0.4648972930051386
1718451848567569200,43.96356909179688,-1.8983716148793697,-1.773850332197547,-1.3405015852749347
1718451848617338400,44.01333837890625,4.652097491812706,-1.2456260837942361,-1.6320089352719485
1718451848667107300,44.063107421875,2.563871998119354,1.1489794809877871,-4.053391886211932
1718451848716876300,44.11287622070312,-0.43436113883554933,0.920872736147046,-5.714774069353938
1718451848766646300,44.16264624023437,4.6848500068575145,2.0829794097334147,-8.941037378782033
1718451848816415200,44.21241528320313,2.7400533254116772,2.3516765236377717,-6.352008143052458
1718451848866184200,44.26218408203125,2.136677682173252,5.526334733512997,2.1709746501810847
1718451848915953400,44.311953369140625,-0.4177775221727788,9.430548157909511,4.031893463370204
1718451848965722400,44.36172241210937,-3.8842017329812046,0.8261620698392391,3.6338758498087524
1718451849015492000,44.4114921875,-4.106684792721271,-2.487279756826162,2.0993965837880966
1718451849065261300,44.46126123046875,-2.752791810953617,-4.382554574733972,3.8635961673259733
1718451849115030300,44.5110302734375,-4.851399582451582,-5.197509021860361,7.759810409662127
1718451849164799500,44.560799560546876,-2.182731138948351,-4.152372777184844,8.79346489085853
1718451849214568400,44.610568359375,13.801057490062712,8.599513513597845,-21.420412550330163
1718451849264338400,44.66033837890625,2.618435070694983,-0.6522919420987368,0.4952484459966421
1718451849314107400,44.710107421875,-0.7238108256503939,1.796920242139697,12.036890932011604
1718451849363876400,44.75987646484375,-8.503976333338022,5.4064212368875735,1.4752189755395053
1718451849413645600,44.8096455078125,-4.805241057866811,-0.13646891010701656,7.548795084875821
1718451849463414500,44.85941455078125,-3.137759096544981,1.5346446857154368,-0.9805834007441997
1718451849513184300,44.909184326171875,0.5747182885527611,-0.5655757816761732,-1.6357842160269618
1718451849562953500,44.95895336914062,-0.3852759131491184,-3.507859652394056,-0.16222352908849716
1718451849612722400,45.00872241210938,0.1380956345260143,-1.5229016409516334,-1.328681529752165
1718451849662491400,45.058491455078126,3.7183635205268857,-1.193051846948266,-1.8382625986143946
1718451849712260600,45.108260498046874,1.6631927396953106,0.8312298746228217,-2.6111604035168883
1718451849762030300,45.1580302734375,0.3938650239266455,0.29882278757691383,-6.81379855608344
1718451849811799600,45.207799560546874,3.524355444642901,2.3832786996036766,-6.7146922851651905
1718451849861568500,45.25756860351562,3.009455372714996,2.991738514238596,-6.440297251880168
1718451849911337500,45.30733740234375,1.9763386516571044,5.281147674533725,2.4371857924886045
1718451849961106400,45.3571064453125,1.7532558724582195,9.528006077098846,4.477600756606459
1718451850010876400,45.40687646484375,-5.018535433501005,0.16877543494999409,2.8754411622837184
1718451850060645400,45.456645263671874,-4.072001017352939,-2.994891425311565,2.2581103511899707
1718451850110414600,45.50641455078125,-0.4946376206219196,-4.050510485556721,4.244671121653914
1718451850160183800,45.55618383789062,-5.428147331005334,-4.620056339907646,7.0839879543721676
1718451850209952800,45.60595288085938,-1.7350106061935424,-4.14779246365726,8.14659029763341
1718451850259722000,45.655721923828125,17.526463330316542,9.368584745949507,-23.272245701396464
1718451850309492000,45.70549194335938,-2.114924115526676,-0.9597352585047483,2.8297277511179444
1718451850359260700,45.7552607421875,3.12520941157341,-3.6584763303190466,16.786556817650794
1718451850409030000,45.80502978515625,-5.725716903650761,17.672965558660028,-12.390561746585368
1718451850458798800,45.854798828125,-5.959785187244415,-2.681783507272601,7.357640060335397
1718451850508567800,45.90456787109375,-3.8552816357061266,2.926446250116825,1.3679025101587174
1718451850558337000,45.9543369140625,1.7869874616682528,0.2081973447561264,-1.4718448229312895
1718451850608106000,46.00410595703125,-0.4536819253772497,-3.80567472423315,1.4241834925681351
1718451850657875700,46.05387573242187,-2.1055366939783093,-1.7263988451927899,-1.9169057810880243
1718451850707645000,46.10364501953125,5.2192175803214305,-1.2099474521696567,-2.3515251324683426
1718451850757414000,46.153413818359375,1.4193572414554654,0.5550888744533061,-2.5814260672494767
1718451850807182800,46.20318286132812,-0.04454217542931437,0.8634645032733679,-4.372044578896463
1718451850856952000,46.2529521484375,5.302274633714556,1.7742945688337086,-7.934063983762264
1718451850906720800,46.302720703125,2.1971552394896743,0.4646124847143888,-7.62117759951949
1718451850956491000,46.35249096679688,3.6880315106272694,5.160622768011689,-1.6586387296527623
1718451851006260000,46.40226000976563,-5.820029510551691,8.259044125902653,4.637613623908162
1718451851056029000,46.45202880859375,-0.6962872973002493,2.533314362770319,2.2396491040870545
1718451851105798000,46.5017978515625,-5.173001188069581,-2.3843290854394437,1.9628543161839245
1718451851155566600,46.551566650390626,-1.5035286858312784,-3.1058588144153356,3.9363925234675405
1718451851205335800,46.601335693359374,-4.678757535201311,-4.548687970742583,6.128537825840711
1718451851255104800,46.65110473632812,-4.252511021499336,-4.730964107778668,8.448790452688932
1718451851304873700,46.70087377929688,15.007383244603872,2.5539023927688596,-4.633776237702369
1718451851354643700,46.75064379882812,5.07194027595222,7.593188353353739,-6.684131727206706
1718451851404412700,46.80041259765625,-3.2725346467375753,-7.394047006234526,13.853295042300223
1718451851454181600,46.850181640625,1.22970107717067,12.14508593379259,-4.812487375733256
1718451851503950800,46.89995092773437,-5.45519900406003,-2.8746541035592554,6.456993535137176
1718451851553719800,46.9497197265625,-3.8000492855668067,-0.34681145019829274,5.320166848757863
1718451851603488800,46.99948876953125,-4.329954618924856,3.8830549010336397,-1.8513997280851004
1718451851653257700,47.0492578125,1.6088941632747649,-3.3085967247217893,0.028527883087098596
1718451851703026700,47.09902661132813,-2.031376063746214,-1.9069886365771294,0.582610064715892
1718451851752795600,47.148795654296876,4.886393154421448,-1.5314549497634171,-2.4127009011819958
1718451851802566000,47.19856591796875,-0.6305255159705877,-0.0653337651759386,-2.9049904973730443
1718451851852334800,47.2483349609375,3.540236319863796,0.8434680094271898,-5.095448577311635
1718451851902103600,47.298103515625,1.6250709527023135,2.023039028033614,-6.142794314730167
1718451851951872800,47.34787280273437,2.1546762802004813,2.1290508405566215,-8.03774823012054
1718451852001641700,47.39764184570313,1.8176298526912926,3.1454899830579754,-6.548903172549605
1718451852051410700,47.44741064453125,-4.957366386789083,7.482097045609355,3.169307496497035
1718451852101180000,47.49717993164062,3.177861974352598,7.422024561962485,0.12298457463383673
1718451852150949000,47.54694921875,-6.8689575487256045,-1.6033458814978598,2.6282100302562115
1718451852200717800,47.5967177734375,-2.6837688358709215,-3.553181141632795,4.536720177312195
1718451852250488000,47.64648803710938,-5.711447555279731,-3.5852795766830443,5.417053105539083
1718451852300257000,47.69625708007813,-5.502370505079627,-3.2953380146980282,8.810025565037131
1718451852350026000,47.74602587890625,-2.1641034492373463,-3.107033118891716,8.033795693102478
1718451852399795000,47.795794921875,11.662585325688124,14.11170047929287,-35.02981700320244
1718451852449564000,47.84556396484375,-3.0059631466850636,-6.940858417332172,6.219005447751283
1718451852499332900,47.895332763671874,3.597292670559883,5.250984591460227,11.622104846739768
1718451852549101800,47.94510180664062,-10.651001222002506,0.285640649920702,0.5123135625660419
1718451852598871000,47.99487109375,-3.074297554981708,-0.33549159928262234,5.105609905841947
1718451852648640000,48.044639892578125,-2.7941677774369715,2.5279414375603197,-0.21958733829855917
1718451852698409000,48.09440893554687,0.4041255750477314,-1.5864736571520566,0.7206618601001799
1718451852748178000,48.14417797851563,-1.4722837988704442,-2.1511773321688175,-1.3553899423271416
1718451852797948000,48.19394799804687,3.7627754937052726,-1.5584019933998583,-3.2906217998310923
1718451852847716900,48.243716796875,-1.1564373957782983,-0.619245412543416,-1.5498923775993287
1718451852897486000,48.29348608398438,4.816013796293735,0.7666746926039457,-3.0396044272631406
1718451852947254800,48.3432548828125,1.1336819586127995,0.5454202978760003,-5.870288456192612
1718451852997023700,48.39302368164063,1.2630477587163447,2.653728210133314,-9.32698607662618
1718451853046793000,48.44279296875,3.1500217812687157,3.5939164721250534,-6.876272840175032
1718451853096562000,48.49256201171875,-4.204156155914068,5.678558262112737,3.5916263153612613
1718451853146330000,48.542330078125,4.314559481394291,9.743083829018474,1.4682678412273524
1718451853196099300,48.592099365234375,-5.822441247868538,-0.6485439877420663,3.658086161957681
1718451853245868300,48.64186840820312,-2.479756667844951,-4.061384346270561,2.7438687920466065
1718451853295637200,48.69163720703125,-3.8249274139747023,-4.544244435337186,4.8200285848930475
1718451853345406200,48.74140625,-5.081833308935165,-4.048213314530253,7.286490886878967
1718451853395175200,48.79117504882812,0.36606793933212756,-2.296760107579827,7.437351310431957
1718451853444944100,48.84094409179688,12.267037073725461,8.21193984490037,-21.823641468799114
1718451853494713000,48.890713134765626,0.43570261657238,0.19339666598737237,2.375129879939556
1718451853544482300,48.940482421875,0.1958276925265789,-0.7043196509778499,13.219154258441923
1718451853594251300,48.99025122070312,-2.326831712977588,14.600643687665462,-9.748729141429067
1718451853644021200,49.040021240234374,-6.238560043048858,-2.581603469642997,7.291660398471355
1718451853693790200,49.08979028320312,-4.382866709423065,1.5507015020251274,-0.6024442076072096
1718451853743559200,49.13955908203125,3.747712364608049,-0.7435901696145534,-2.427885756962746
1718451853793328400,49.189328369140625,-2.7852561567068097,-3.461650858926773,0.7780106178715824
1718451853843097000,49.23909716796875,3.491116022863984,-0.07815408378243446,-1.4639341959372163
1718451853892866000,49.28886596679688,0.007840338236838579,-1.1912409981340168,-1.8076526485562323
1718451853942635000,49.338635009765625,4.586396062368154,0.07264554949402809,-2.728712431707978
1718451853992404200,49.388404296875,-1.8399416377425193,1.0308458535164593,-5.670607595369219
1718451854042173200,49.43817309570313,1.819903788972646,1.8758710292577743,-8.721997152972222
1718451854091942100,49.487942138671876,4.0094636048972605,3.283096957284212,-7.418174900797009
1718451854141711400,49.53771142578125,-2.095350815528631,5.2249377115339035,2.8128610797300935
1718451854191480000,49.58747998046875,2.128826238020509,8.975704203015566,1.6123469340771435
1718451854241249300,49.63724926757813,-4.456484026558697,0.30523849983811374,2.850277202671766
1718451854291018200,49.687018310546875,-2.911305671869218,-2.900826071169972,3.11355287604928
1718451854340787200,49.736787109375,-3.0500816898748275,-4.494317498129606,4.935134096714854
1718451854390556400,49.78655639648437,-5.151232423853874,-4.9579526622444385,6.432213314145803
1718451854440325400,49.83632543945313,-1.1781237424075603,-3.0808196502268315,7.854258041119575
1718451854490094000,49.88609399414062,21.62427741883993,9.48597953775227,-22.715537701308726
1718451854539863300,49.93586328125,-2.029544464404881,-0.959873790192604,3.4041324436768887
1718451854589632300,49.98563232421875,8.836848690032959,3.760381876567006,15.012535220539569
1718451854639401200,50.035401123046874,-8.723490021878481,3.143363492423296,1.3761539134144782
1718451854689170400,50.08517041015625,-5.085527487277984,1.8117858028382061,6.157217976880073
1718451854738939400,50.134939453125,-2.193170553767681,1.972961868700385,-3.013975188226998
1718451854788708000,50.1847080078125,0.29085809230804444,-1.606035266712308,-0.7953399383351206
1718451854838477300,50.234477294921874,-1.5966460915982723,-3.834288239777088,1.8285291401073336
1718451854888246300,50.28424633789062,0.6680202571064233,-1.0372446146428584,-2.1767741302400827
1718451854938015200,50.33401513671875,1.130926522424817,-1.3213643386065959,-0.8394839082270861
1718451854987784200,50.3837841796875,2.9624200652956962,0.3889923033237457,-3.511919741439819
1718451855037553400,50.43355346679687,-0.7765444908417761,1.38513976842463,-4.169538431519269
1718451855087322000,50.483322021484376,4.8510816025435926,1.988202692452073,-7.426263514706492
1718451855137091000,50.533091064453124,1.502709186141938,0.4109744180291891,-8.352585748431085
1718451855186860800,50.58286083984375,2.713178762489557,4.584962814694642,-3.402859647262096
1718451855236629800,50.63262963867187,-7.619390131580829,7.001340066301823,4.556261036345362
1718451855286398700,50.68239868164063,3.083561057889461,4.248976709893346,1.1871186575070023
1718451855336168000,50.73216796875,-6.693481739354133,-1.434389244762063,2.9926214345529676
1718451855385936600,50.7819365234375,-2.0833491198286413,-3.755373693016171,3.591475800974667
1718451855435705600,50.83170556640625,-4.251682753981649,-4.27919999872148,5.366491377559304
1718451855485474800,50.88147485351563,-4.0202807669878,-3.9542911682516335,8.535941497397422
1718451855535243800,50.931243896484375,7.960533473014831,-0.1110176579862833,0.5002326641499996
1718451855585012700,50.9810126953125,0.7963722039923071,10.775302139931917,-20.690910527300833
1718451855634782000,51.03078198242188,-3.717411918890476,-8.317489885130524,9.609355157530308
1718451855684550700,51.080550537109374,-1.1241197650194168,1.8959657227814197,7.611819404065608
1718451855734319600,51.13031958007812,-11.061494578516482,8.645008021315931,0.2567559162199497
1718451855784088800,51.1800888671875,-4.7450595608875155,-5.269563035202026,7.613672922977805
1718451855833857800,51.22985791015625,-2.5038719951868056,6.919789325818419,-0.6965656758502126
1718451855883626800,51.279626708984374,0.18944361751265823,-2.818559291371703,-0.9157228060379624
1718451855933396000,51.32939599609375,-0.5455184975534677,-3.5024545784801244,-0.7034181720934808
1718451855983164700,51.37916455078125,3.303904767513275,-0.8504916244536638,-2.222298010183126
1718451856032933600,51.42893359375,0.8427414487183094,-0.4139946426331997,-0.18158230955302715
1718451856082702800,51.47870288085937,3.8820892708718775,0.9871475815653801,-3.680350892996788
1718451856132471800,51.52847192382813,-0.7606627388380467,0.9537865792334079,-6.9328452067464585
1718451856182240500,51.578240478515625,3.2436043203294274,1.0377017107605933,-8.966113952371478
1718451856232009500,51.62800952148437,3.9156647927373647,2.7909096524238586,-5.689421016910672
1718451856281778700,51.67777880859375,-4.087538193702698,7.166897708249092,4.243729164628684
1718451856331547400,51.72754736328125,3.5487960584163663,8.777364819929003,-0.2626288999065757
1718451856381316400,51.77731640625,-5.449890376257896,0.6251245337098836,4.672126426623762
1718451856431085600,51.82708544921875,0.605061988890171,-3.5957448565959926,4.393008456470072
1718451856480854500,51.8768544921875,-4.820130291701853,-5.503264239048957,5.436005643290281
1718451856530623500,51.92662353515625,-5.232146035477519,-5.027902981305122,5.83166851041913
1718451856580392700,51.97639282226562,0.013173662088811397,-2.9912264730632305,6.461410182535648
1718451856630161400,52.02616137695313,12.309203313803673,11.199558648860453,-23.454885411047933
1718451856679930400,52.075930419921875,-1.6511059960603713,-1.2692127110868692,6.535208409196138
1718451856729699600,52.12569946289062,-0.8109937268018722,8.737390536937117,-7.764906856018304
1718451856779468500,52.17546850585938,-6.448664098209142,-7.200147066900134,9.59332990540266
1718451856829237500,52.225237548828126,-4.138998331826925,13.34042735298276,-0.48524698420315976
1718451856879006700,52.2750068359375,0.40104499855861064,-3.314554171821475,-2.0633613938108084
1718451856928775400,52.324775390625,-2.5397207226812837,-0.516502246427536,1.4323101004004477
1718451856978544400,52.37454443359375,1.5261001447319984,-2.66184838822484,-0.7431080851860344
1718451857028312300,52.42431225585938,0.021566519641876218,-2.348523612564802,-0.758747698996961
1718451857078081500,52.47408154296875,1.28450862602666,-1.1055366451025008,-1.2955012908145784
1718451857127850500,52.5238505859375,1.567454630035907,0.3199152599662542,-2.0230768758259714
1718451857177619700,52.57361962890625,-0.016212299132347105,-0.2814876218944788,-6.304693434169888
1718451857227388700,52.623388671875,2.878478045761585,1.04069212474823,-6.623981502148508
1718451857277157600,52.67315771484375,2.5455098274767396,0.8203717960000038,-6.8107403375566005
1718451857326926600,52.72292651367187,4.755413489380478,6.022876726451516,-3.103430125963688
1718451857376695600,52.77269555664063,-4.8985576394677155,8.23295691396594,4.048607866805791
1718451857426464500,52.822464599609376,-0.8504093529976904,4.438666922578215,2.483279289013147
1718451857476233700,52.872233642578124,-4.625548507583141,-0.14950024111568927,3.4681229775503275
1718451857526002700,52.92200268554687,-0.639065819170326,-4.193325549820066,4.376122203598916
1718451857575771600,52.97177172851563,-3.813179985296726,-6.373350790810584,5.655920313847065
1718451857625540600,53.02154052734375,-3.4428853681802747,-5.01943910434246,8.059710471081733
1718451857675309600,53.0713095703125,10.969196234047413,0.17793489296138285,-2.346731468451023
1718451857725078500,53.12107861328125,11.370293985706567,11.238796434271334,-16.63391360233426
1718451857774846500,53.17084643554688,-2.5091291850626467,-7.951349465084076,12.215345464932918
1718451857824615700,53.22061572265625,-6.658789196157455,9.050281597355008,4.484726955224573
1718451857874384600,53.270384521484374,-3.9386055233418937,-2.6215759990692136,5.354474192029238
1718451857924153600,53.32015356445312,-4.438516700452566,-3.5055560516268014,8.484193774503469
1718451857973922800,53.3699228515625,-1.032636828586459,5.686809957629442,-1.7336951396808027
1718451858023691800,53.41969189453125,-0.591893295237422,-3.2945728755444286,-2.1940467520803213
1718451858073460500,53.46946044921875,-0.9962444957345723,-2.3593279151737687,-3.1206223760440945
1718451858123229700,53.51922973632813,4.738592702960967,-1.1148843191623687,-0.891970028398186
1718451858172999000,53.5689990234375,0.27790742532014845,-1.3133283316671847,-1.2692572808809577
1718451858222767900,53.618767822265625,1.7100994522988795,0.5709744258493185,-5.405653759646415
1718451858272537000,53.668537109375,4.6409977133885025,1.1624164701879023,-6.870370922654867
1718451858322305000,53.718304931640624,4.081057014989852,3.074336133426428,-7.579839626958965
1718451858372074000,53.76807397460937,2.7277918097317215,4.044938822904229,-3.872057706201076
1718451858421842700,53.8178427734375,-9.066813629961013,8.668661284103989,5.713626652884483
1718451858471612000,53.86761181640625,3.234147925198078,4.989905551344156,0.7226669163122773
1718451858521380900,53.917380859375,-6.602127982258796,-2.145322176399827,2.7358547046780584
1718451858571149800,53.96714990234375,-0.8040719647146761,-4.238102264657616,5.488410953310131
1718451858620919000,54.0169189453125,-2.8844436761677263,-5.011076934188604,6.331070568963885
1718451858670688000,54.06668798828125,-3.460292430055141,-5.021307236301898,7.561250077301263
1718451858720457000,54.11645703125,4.196676613813638,0.19994272662997245,-2.5268209090977907
1718451858770226000,54.166225830078126,10.026239676386117,8.736355348670482,-19.710108515369893
1718451858819993900,54.21599389648438,-2.8985294846653935,-3.7916070359140632,10.783764847850799
1718451858869762800,54.2657626953125,-4.395772952747345,8.515152976390718,-0.09453443295806646
1718451858919531800,54.31553173828125,-7.385055306005477,-0.9537690435767173,4.733749354583025
1718451858969301000,54.36530102539062,-3.8826480737984177,2.7865286608606574,1.6229586367234587
1718451859019070000,54.41507006835938,1.1300959168195723,0.3204834152430296,-0.1852861325070262
1718451859068839000,54.4648388671875,-0.39655835466384887,-2.330892094284296,1.1335647619739173
1718451859118608000,54.51460791015625,-2.181512264677882,-2.685083133339882,-3.1145436406522986
1718451859168376800,54.564376953125,6.8288523328304285,-1.0279822807788848,-3.3098011320754885
1718451859218144800,54.61414477539063,0.4099965129077434,1.2792805161148308,-2.3678686567649243
1718451859267914000,54.6639140625,0.37491833139434455,0.30523849983811374,-4.638240523634851
1718451859317683000,54.713682861328124,5.118816008895635,1.8714339235931634,-6.910579014402628
1718451859367452000,54.76345190429687,1.1767771501041948,0.5181237101495265,-7.176185761076211
1718451859417221000,54.81322119140625,3.158739925253391,4.282223145934939,-4.370229346168041
1718451859466990000,54.862989990234375,-8.301687335842848,8.2259823987782,3.8749741781696674
1718451859516759000,54.91275903320312,4.39005515962243,4.647683767023683,1.3349772688955068
1718451859566527000,54.96252685546875,-6.325052916109562,-1.9841811818510293,2.619380534851551
1718451859616296000,55.0122958984375,-1.3171671791777013,-3.702361064752936,3.7745685150906443
1718451859666065000,55.06206494140625,-4.171350157116353,-5.083869198676943,6.472143757995963
1718451859715833900,55.111833740234374,-4.3690424744710326,-4.6443309494644405,8.181684407368301
1718451859765603000,55.16160302734375,4.105633822363615,-0.13699614885151384,1.9134373743250965
1718451859815372000,55.2113720703125,4.631349302816391,8.517954589807987,-27.19024215195179
1718451859865140000,55.26113989257812,-3.7826547909125683,-4.354835377681255,9.311972047367691
1718451859914909200,55.3109091796875,3.934992301280796,12.337448580557107,2.226462874777615
1718451859964678100,55.36067822265625,-8.080279796379804,-0.200594468536973,7.549369085371493
1718451860014446800,55.41044677734375,-3.3469688332140444,1.9525182156085967,2.256728541442752
1718451860064215800,55.4602158203125,-1.0056816016435624,1.044735262659192,-0.6647028031215071
1718451860113985000,55.509985107421876,-0.1299585052996874,-2.828305609360337,-0.5007752465941011
1718451860163752200,55.559752197265624,-1.5834546015918254,-2.132828605529666,-1.9342299869850277
1718451860213521400,55.609521484375,5.493104664084315,-1.097216560524702,-2.56785200766623
1718451860263290400,55.65929028320313,0.823500011023134,0.1017021326303482,-2.851141126024723
1718451860313059300,55.709059326171875,0.24062545015215872,2.1215759746313094,-5.3711447563230985
1718451860362828500,55.75882861328125,5.955865967974066,1.6738813069701193,-8.430366907247901
1718451860412597500,55.80859741210938,3.154146752244234,1.528741599151492,-6.683941757592558
1718451860462365400,55.85836547851562,2.9263895514935254,4.028466411530971,-3.1039103106960653
1718451860512134400,55.90813452148438,-4.5814276263058185,8.872351965090632,3.3048885178536174
1718451860561903400,55.9579033203125,-1.2885146467976272,2.9782594394624233,3.2189304823219773
1718451860611672300,56.00767236328125,-5.352378096532822,-3.252898218375444,1.571843951036036
1718451860661441300,56.05744116210938,-2.370095977425575,-4.020364938139915,4.615518696478009
1718451860711209200,56.10720922851562,-4.8015524324819445,-4.617444111582636,6.7794140559226275
1718451860760978400,56.156978515625,-4.133073325692117,-4.218392771059275,8.549729199731349
1718451860810747400,56.206747314453125,21.05502557899952,4.531515302145481,-17.291635168266296
1718451860860516400,56.25651635742187,4.345132022051513,4.517438261476159,3.1120880641937254
1718451860910285600,56.30628564453125,1.8017782035648822,-1.8998147994250059,16.45681282210946
1718451860960053500,56.35605346679687,-2.6265605094835163,20.17102974435091,-10.64400098785162
1718451861009822500,56.40582250976563,-7.487781520986556,-2.2764251755595204,4.6459559203177685
1718451861059591200,56.455591064453124,-3.5338346361279487,0.946401145157218,1.1305211564943194
1718451861109360400,56.5053603515625,3.760499365466833,-0.2953963202595711,-1.30764911698699
1718451861159129000,56.55512915039063,-2.2579694814145563,-4.116507098555565,0.541071747277677
1718451861208897000,56.60489697265625,1.4514064305365084,-1.4608055425226687,-1.8142662214770913
1718451861258666200,56.65466625976563,0.4376988318908959,-1.4767512996733188,-2.8903029235899447
1718451861308435200,56.704435302734375,5.099293562301993,-0.2917208466172218,-4.79759726511538
1718451861358204200,56.7542041015625,-1.248909489379078,0.5976514203727245,-5.481224841198324
1718451861407973400,56.80397338867188,1.6481471462547779,3.0862036813527345,-8.492019353562593
1718451861457741300,56.8537412109375,2.9667560486733913,4.063644107896089,-7.531540583214164
1718451861507510300,56.90351025390625,0.9937667074441909,5.437347705549001,3.253868816973269
1718451861557279200,56.953279296875,0.8061293356359005,8.524968267962336,3.5495082983389494
1718451861607048200,57.00304809570312,-3.820761234205961,0.4870680621504783,3.1144837271586057
1718451861656816000,57.05281616210937,-2.0185525302693246,-3.0544436844766136,3.0932454165577887
1718451861706585000,57.10258520507813,-2.921466123616695,-5.019041044935584,4.7411233904823655
1718451861756354000,57.15235400390625,-4.766726033772528,-4.497568024358153,6.604476591211557
1718451861806123300,57.202123291015624,-2.4890882675528525,-3.0629046388298273,8.035948487222194
1718451861855891200,57.25189111328125,17.290800471007824,7.02905809431076,-19.47267455473542
1718451861905660200,57.30166015625,0.9038605188086628,0.7072329080760479,1.5973603773474692
1718451861955429000,57.35142919921875,-2.479822426557541,-6.262381063619256,15.208371096372604
1718451862005198300,57.4011982421875,1.0895287825010715,26.133454632449148,-18.12041823425889
1718451862054966300,57.45096630859375,-6.941301484924554,-5.650889333942533,7.649720972436666
1718451862104735200,57.5007353515625,-2.6026819135069847,1.6486287922918796,3.95844682662636
1718451862154505000,57.5505048828125,2.1616005265057088,1.330226859498024,-0.14952186842560766
1718451862204274200,57.600274169921875,-2.4643109691709277,-4.966270993256568,-1.24554425072968
1718451862254042000,57.6500419921875,1.7797322298429905,-1.5912673211693762,-3.3174367415204644
1718451862303811000,57.69981103515625,1.9977894359648227,-1.5874153219163416,-0.6163267486177384
1718451862353580300,57.74958032226562,2.7199223915308712,1.1149392642199993,-3.0438778667986393
1718451862403349200,57.79934936523438,-0.2906270600311458,-0.008085691300034522,-6.026992929598689
1718451862453117200,57.8491171875,5.488686847642064,2.6142209601312874,-7.501183438873291
1718451862502886100,57.89888623046875,4.3805473265647885,1.7922475741535424,-7.56700001913011
1718451862552655000,57.94865502929687,-1.077536877542734,6.283692147195339,0.888476633324474
1718451862602423300,57.99842333984375,2.7171874136090275,11.821553067851067,1.4653475698664784
1718451862652192000,58.04819189453125,-5.815474915987253,0.9189894066184758,3.7651685263216494
1718451862701961000,58.0979609375,-4.194885638743639,-3.501774195000529,3.632419513520598
1718451862751730200,58.147730224609376,-3.3200086378350853,-5.2573909513711925,4.210024171164632
1718451862801498000,58.197498046875,-5.443960986208915,-4.7935675712078805,7.463731952357292
1718451862851267000,58.24726708984375,-2.0221058388367292,-3.6319004580825567,8.154349241197108
1718451862901036000,58.2970361328125,15.973486869096755,10.559574984192848,-26.90182034687996
1718451862950805200,58.34680517578125,-1.3215493397846818,-4.085460802906751,3.9044057320982217
1718451863000573200,58.3965732421875,-1.5578046120285987,-2.5833751554906366,14.741038831305502
1718451863050342100,58.446342041015626,-9.419894077426195,16.55776559767723,-8.721675665932894
1718451863100111400,58.496111328125,-4.773590366584062,-2.40897252830863,8.82974090385437
1718451863149878800,58.545878662109374,-3.021031536479294,4.234508624079823,1.975116124124825
1718451863199647700,58.59564770507812,1.625503937292099,-0.8121522491872311,-1.576292162616551
1718451863249416700,58.64541674804688,-1.4848516040205955,-4.303667500501871,-1.2439315548360348
1718451863299185000,58.69518481445313,0.8840858510196209,-2.1101719525635243,-2.033971925458312
1718451863348953600,58.74495361328125,1.0611936455070972,-0.5766571476608514,-0.6651008625283837
1718451863398722600,58.79472265625,5.159290642625093,-0.015358897173404693,-3.5937484220817684
1718451863448490800,58.84449072265625,-1.8923956092096863,0.21737843007743357,-6.418208169668913
1718451863498259700,58.894259765625,5.108450682225823,2.6965584670782086,-8.026528916969895
1718451863548028700,58.94402856445313,3.9909482895195483,2.7713772689580916,-6.795027804639935
1718451863597798000,58.9937978515625,0.40529578787088394,6.464863537859916,3.448621573744714
1718451863647565800,59.04356591796875,0.14812135397791862,9.982682274210452,2.4884116834655403
1718451863697334800,59.093334716796875,-3.717023796355724,0.45988428714871404,3.4097765870437025
1718451863747103700,59.14310375976562,-3.0801462810099123,-3.0180040053516626,2.3010563434690234
1718451863796871700,59.19287158203125,-3.021685031951964,-4.836028410318494,5.629823749560117
1718451863846641000,59.24264086914062,-5.78041763113141,-5.1266959484905,7.253815528723597
1718451863896409900,59.29240991210938,-0.893158799791336,-2.865207060778141,7.6562436522036785
1718451863946177800,59.342177734375,26.19005505607128,4.757434766075015,-13.971457311344146
1718451863995946800,59.39194677734375,0.10816899055689573,0.3006938421458006,1.8522472848251461
1718451864045715700,59.4417158203125,1.8735057614311574,-5.68399665377438,14.97247442830801
1718451864095484000,59.49148388671875,-5.917084694159031,20.27958948779106,-15.098787270581722
1718451864145252600,59.54125268554687,-5.796620577913522,-2.4885545990675686,8.643360254108906
1718451864195021000,59.59102099609375,-3.7727287324428556,3.181725664043426,1.9935653885290026
1718451864244790300,59.640790283203124,2.604960379832983,0.39632805303931234,-1.2389344772011042
1718451864294559200,59.69055932617187,-1.3023930961549282,-4.712129643449187,0.24601401132270692
1718451864344327200,59.7403271484375,-0.36284905035085974,-2.308010400390625,-3.1087904839530585
1718451864394096400,59.79009643554687,2.7293232570827004,-1.2764239576399325,-1.035846730543673
1718451864443865300,59.839865234375,4.566713749037683,1.1977432196348905,-2.7007570878118274
1718451864493633300,59.88963330078125,-2.0701606985621153,-0.1839414398998022,-7.475763166412711
1718451864543402200,59.93940234375,6.615746757766604,3.3927018258631225,-6.905737419590354
1718451864593171500,59.98917138671875,4.589913130578398,1.9889134710699319,-7.7914266141533846
1718451864642939400,60.038939453125,1.1807681194365023,5.692177622142434,1.839762043391913
1718451864692708400,60.08870825195312,-0.8591080616295337,9.787620889881252,3.551167463722825
1718451864742477000,60.13847705078125,-2.9981062957048414,0.6918927156031132,2.4001123455047604
1718451864792245200,60.18824536132813,-4.90960861031413,-2.627688928991556,2.7064588065847754
1718451864842014200,60.23801416015625,-1.7272867339432239,-4.709641918286681,4.920819740158319
1718451864891782400,60.28778247070313,-5.169753584450483,-5.771094506990909,6.265575475746393
1718451864941551000,60.337551025390624,-3.2761116284415124,-4.1564258519679305,8.508523913639783
1718451864991320300,60.3873203125,21.368647291779517,8.267855208867788,-16.381901665771007
1718451865041088300,60.437088134765624,0.0455637735620141,1.5987281585693358,2.489163963137567
1718451865090857200,60.48685717773437,3.0641771429836746,-5.504609808439016,16.80499380709529
1718451865140625200,60.53662524414062,-9.312899683606624,19.0001575805068,-15.350098949921131
1718451865190393600,60.5863935546875,-4.64537549008131,-3.62652227217555,8.463439740288257
1718451865240162800,60.636162841796875,-2.5617431693971158,4.584131624567508,1.1475424339219926
1718451865289930800,60.6859306640625,-0.728156526704505,-0.11569967832267283,-2.6831907437220215
1718451865339699700,60.73569970703125,0.5126426483899355,-4.668463520202041,0.6491003064505756
1718451865389467600,60.785467529296874,-1.9933026459395884,-1.3409960907936096,-1.1801276295758782
1718451865439236900,60.83523681640625,4.861290277346968,-1.350747084957361,-1.1786251891236752
1718451865489005800,60.885005859375,2.4013019936807454,0.7658768202245235,-4.878866558308899
1718451865538773800,60.93477368164063,0.04514890915080905,0.5498883832007646,-5.3584448492258785
1718451865588542700,60.984542724609376,5.524556617924571,2.826628616058826,-7.2692574280053375
1718451865638311000,61.03431079101563,2.3416696550168097,0.1960883892893791,-8.307096501410006
1718451865688080000,61.084079833984376,3.3579929160535333,6.056981240627169,0.7605798828601836
1718451865737848800,61.133848876953124,-5.3572682066619395,9.203097246629,3.660598729300499
1718451865787616800,61.18361669921875,-0.936309374731779,1.5686802263081072,1.6650614561766386
1718451865837386000,61.23338598632812,-5.406031360787153,-1.9646295091629027,1.6148165390610694
1718451865887154000,61.28315380859375,-2.820750663936138,-4.034349624350667,4.5546156072258945
1718451865936923000,61.3329228515625,-5.0581508200526235,-5.374995586532354,6.525091504329443
1718451865986691800,61.38269189453125,-4.54878792398572,-4.041609386220574,8.757986165720224
1718451866036459800,61.43245971679688,18.087038527226447,3.501671903669834,-6.445151121652126
1718451866086228700,61.482228759765626,4.815264439231157,4.822475101262331,-2.7444819555088875
1718451866135997000,61.53199682617188,-4.111104947251081,-7.845932695844769,12.033900518023968
1718451866185765600,61.581765625,2.706655498200655,20.066963805198668,-11.002401753556727
1718451866235533600,61.631533447265625,-5.654195974272489,-3.7773265816271304,9.280126710295677
1718451866285302500,61.68130249023437,-3.7830069653511047,-2.171964099609852,5.0227533434569835
1718451866335071200,61.7310712890625,-2.44541513004303,3.6639801884323355,-1.1022282512068748
1718451866384839400,61.78083935546875,-1.156204756066203,-4.218635932165384,-0.48540422059148547
1718451866434608400,61.8306083984375,0.29015966171510515,-2.098090469625592,-2.672652690833807
1718451866484376300,61.88037622070313,2.464672788220644,-1.291574180498719,-1.7369401129513977
1718451866534145300,61.930145263671875,2.8957448223829267,0.6929664823144673,-3.4691531973809
1718451866583913200,61.979913330078126,-0.5002478617191315,0.26339023966789243,-5.9418403652310365
1718451866633682400,62.029682373046874,5.516358113899827,2.75707577188313,-7.576542338979244
1718451866683451400,62.07945141601562,3.745979841727018,0.3254617881774902,-7.3970175464779135
1718451866733219300,62.12921923828125,0.8717968628108501,6.617479865169525,0.5077950622282922
1718451866782988300,62.17898828125,0.5925181491374969,12.36122108581066,3.4261990217953917
1718451866832756500,62.22875659179687,-4.128706070393323,2.238570368939638,4.614739528799057
1718451866882525400,62.278525390625,-3.8779426725864408,-3.34759193354845,1.978802995944023
1718451866932293400,62.32829345703125,-3.12923793643713,-4.472677328729629,5.003068984299897
1718451866982062300,62.378062255859376,-5.617447083067893,-5.611793002828955,7.95939716246128
1718451867031830300,62.42783032226563,-2.8059768731743095,-4.850225862497091,9.338305927541851
1718451867081599500,62.477599609375,22.860075936102866,9.966313323211669,-23.39612927069664
1718451867131368400,62.527368408203124,0.375996335889399,-0.46218087365329263,3.910292452049255
1718451867181137000,62.57713696289063,8.562209911119938,1.6195763008087873,15.846103182721137
1718451867230905900,62.62690576171875,-9.015547553104161,5.694170841786265,0.6885518807426094
1718451867280674000,62.67667407226563,-4.670172077685594,2.8611902263522144,5.533263071471453
1718451867330443000,62.726443115234375,-3.165164989864826,0.49892275059521196,-1.3065323879167436
1718451867380211000,62.7762109375,0.41340186437182125,-0.6562456481605767,-0.3910027663633227
