time,seconds_elapsed,z,y,x
1718451804614052600,0.010052490234375,-0.9976348876953125,-0.2526092529296875,-0.018890380859375
1718451804663824600,0.05982470703125,-0.9636077880859375,-0.2366790771484375,0.02069091796875
1718451804713596700,0.1095966796875,-0.92913818359375,-0.2625732421875,-0.0188751220703125
1718451804763367400,0.159367431640625,-0.9741668701171875,-0.245208740234375,0.00677490234375
1718451804813139500,0.209139404296875,-0.962646484375,-0.2461700439453125,0.00115966796875
1718451804862911500,0.258911376953125,-0.964935302734375,-0.2516326904296875,-0.0094757080078125
1718451804912682500,0.3086826171875,-0.95806884765625,-0.2491455078125,-0.01324462890625
1718451804962454500,0.35845458984375,-0.9348297119140625,-0.2682647705078125,-0.0347442626953125
1718451805012226600,0.4082265625,-0.962432861328125,-0.2515106201171875,-0.0014495849609375
1718451805061997300,0.457997314453125,-0.95660400390625,-0.2578125,-0.01708984375
1718451805111769000,0.50776904296875,-0.9597320556640625,-0.2533111572265625,-0.0197601318359375
1718451805161541000,0.557541015625,-0.9493255615234375,-0.2554931640625,-0.0200958251953125
1718451805211312400,0.6073125,-0.9695281982421875,-0.255889892578125,-0.0250701904296875
1718451805261084400,0.65708447265625,-0.95684814453125,-0.2541046142578125,-0.020355224609375
1718451805310856400,0.7068564453125,-0.955352783203125,-0.249542236328125,-0.0211639404296875
1718451805360627500,0.75662744140625,-0.959716796875,-0.2487335205078125,-0.023895263671875
1718451805410399200,0.806399169921875,-0.964935302734375,-0.2528839111328125,-0.0230255126953125
1718451805460171300,0.856171142578125,-0.963958740234375,-0.2525482177734375,-0.023651123046875
1718451805509942300,0.9059423828125,-0.956329345703125,-0.2507171630859375,-0.0251617431640625
1718451805559714300,0.95571435546875,-0.9590606689453125,-0.2484130859375,-0.028717041015625
1718451805609485300,1.0054853515625,-0.9627532958984375,-0.2471923828125,-0.02886962890625
1718451805659257300,1.05525732421875,-0.960235595703125,-0.2444305419921875,-0.026824951171875
1718451805709029000,1.105029052734375,-0.9568328857421875,-0.2463226318359375,-0.0238037109375
1718451805758800400,1.15480029296875,-0.96234130859375,-0.2451934814453125,-0.0234222412109375
1718451805808572400,1.204572509765625,-0.958465576171875,-0.2526702880859375,-0.0341339111328125
1718451805858344200,1.25434423828125,-0.9788360595703125,-0.2464752197265625,-0.032440185546875
1718451805908115500,1.304115478515625,-0.9630279541015625,-0.247344970703125,-0.03424072265625
1718451805957887500,1.353887451171875,-0.949310302734375,-0.2418212890625,-0.0240936279296875
1718451806007659300,1.4036591796875,-0.9781646728515625,-0.24102783203125,-0.029571533203125
1718451806057430300,1.45343017578125,-0.9593963623046875,-0.2429046630859375,-0.02862548828125
1718451806107202300,1.503202392578125,-0.969757080078125,-0.2421722412109375,-0.032135009765625
1718451806156973300,1.552973388671875,-0.95184326171875,-0.2409820556640625,-0.0279998779296875
1718451806206745300,1.602745361328125,-0.9636688232421875,-0.240509033203125,-0.03350830078125
1718451806256517400,1.652517333984375,-0.9550323486328125,-0.246612548828125,-0.0344696044921875
1718451806306288000,1.7022880859375,-0.96893310546875,-0.2384033203125,-0.02545166015625
1718451806356060200,1.75206005859375,-0.9611358642578125,-0.2406158447265625,-0.032562255859375
1718451806405832200,1.801832275390625,-0.96087646484375,-0.2413787841796875,-0.0236663818359375
1718451806455603500,1.851603515625,-0.967315673828125,-0.2358856201171875,-0.0307769775390625
1718451806505375500,1.90137548828125,-0.9616546630859375,-0.245269775390625,-0.033935546875
1718451806555146200,1.951146240234375,-0.961822509765625,-0.24395751953125,-0.0274505615234375
1718451806604918300,2.000918212890625,-0.97393798828125,-0.240631103515625,-0.022979736328125
1718451806654690300,2.050690185546875,-0.9513702392578125,-0.2403106689453125,-0.0262451171875
1718451806704461300,2.10046142578125,-0.9702911376953125,-0.232513427734375,-0.0144805908203125
1718451806754233300,2.1502333984375,-0.949981689453125,-0.2384185791015625,-0.0279388427734375
1718451806804004000,2.200004150390625,-0.9730987548828125,-0.245574951171875,-0.0397186279296875
1718451806853776100,2.249776123046875,-0.9252777099609375,-0.248016357421875,-0.020751953125
1718451806903548200,2.299548095703125,-0.996002197265625,-0.258087158203125,-0.0313873291015625
1718451806953319400,2.3493193359375,-0.9344024658203125,-0.259033203125,-0.0304107666015625
1718451807003091500,2.399091552734375,-1.0403900146484375,-0.2743682861328125,-0.0190887451171875
1718451807052862500,2.448862548828125,-0.929046630859375,-0.279876708984375,-0.0064849853515625
1718451807102634800,2.498634765625,-0.91607666015625,-0.3284759521484375,-0.0332489013671875
1718451807152406500,2.548406494140625,-0.9700775146484375,-0.2790374755859375,0.0516204833984375
1718451807202177500,2.598177490234375,-0.9689788818359375,-0.3268280029296875,0.0081939697265625
1718451807251949600,2.647949462890625,-0.9627227783203125,-0.322235107421875,0.0269775390625
1718451807301720600,2.697720458984375,-0.9770355224609375,-0.326263427734375,0.0671539306640625
1718451807351492600,2.74749267578125,-0.9433135986328125,-0.35968017578125,0.096466064453125
1718451807401263400,2.797263427734375,-0.9943084716796875,-0.3447418212890625,0.1316070556640625
1718451807451035400,2.847035400390625,-0.827545166015625,-0.3855438232421875,0.182464599609375
1718451807500807400,2.896807373046875,-1.035308837890625,-0.4510498046875,0.1021881103515625
1718451807550578700,2.94657861328125,-0.9259185791015625,-0.394134521484375,0.2479705810546875
1718451807600350700,2.996350830078125,-0.9585723876953125,-0.4205169677734375,0.136383056640625
1718451807650121500,3.04612158203125,-0.94732666015625,-0.342620849609375,0.2134552001953125
1718451807699893500,3.0958935546875,-0.8822479248046875,-0.396759033203125,0.1883544921875
1718451807749664500,3.14566455078125,-0.80792236328125,-0.4407501220703125,0.0326385498046875
1718451807799436500,3.1954365234375,-0.7287139892578125,-0.4524688720703125,0.0613861083984375
1718451807849207600,3.24520751953125,-0.8355712890625,-0.42620849609375,-0.047119140625
1718451807898979600,3.2949794921875,-0.9480133056640625,-0.384124755859375,-0.0693511962890625
1718451807948751400,3.34475146484375,-0.9957122802734375,-0.39990234375,-0.0030059814453125
1718451807998522600,3.394522705078125,-0.8553314208984375,-0.352569580078125,0.05731201171875
1718451808048294700,3.444294677734375,-0.8216705322265625,-0.4274139404296875,0.0584564208984375
1718451808098065700,3.494065673828125,-0.8695526123046875,-0.4166259765625,0.08343505859375
1718451808147837700,3.543837646484375,-0.83612060546875,-0.372406005859375,0.12457275390625
1718451808197608700,3.593608642578125,-0.98974609375,-0.3041534423828125,0.1214599609375
1718451808247380700,3.643380615234375,-1.0354156494140625,-0.3341217041015625,0.1280975341796875
1718451808297151500,3.6931513671875,-0.959197998046875,-0.3124237060546875,0.1217498779296875
1718451808346923500,3.742923583984375,-0.8861846923828125,-0.279449462890625,0.2994232177734375
1718451808396694800,3.79269482421875,-0.9805145263671875,-0.31829833984375,0.1617889404296875
1718451808446466600,3.842466552734375,-1.0590362548828125,-0.32208251953125,0.078125
1718451808496237600,3.892237548828125,-0.669921875,-0.2919464111328125,0.1831207275390625
1718451808546009600,3.942009521484375,-0.938873291015625,-0.368194580078125,0.0531768798828125
1718451808595780600,3.991780517578125,-0.9681549072265625,-0.3414459228515625,0.03680419921875
1718451808645552600,4.041552734375,-0.9560699462890625,-0.364654541015625,-0.0562591552734375
1718451808695323600,4.09132373046875,-0.8697967529296875,-0.4276275634765625,0.0337982177734375
1718451808745095700,4.141095703125,-0.8056182861328125,-0.422454833984375,0.0938262939453125
1718451808794866700,4.19086669921875,-1.0025482177734375,-0.43756103515625,0.00152587890625
1718451808844638500,4.240638427734375,-0.969024658203125,-0.4851837158203125,-0.0659332275390625
1718451808894409700,4.29040966796875,-0.867340087890625,-0.39178466796875,0.0687255859375
1718451808944181800,4.340181640625,-0.833587646484375,-0.459747314453125,0.1083221435546875
1718451808993952800,4.389952880859375,-0.9084320068359375,-0.4544525146484375,-0.051177978515625
1718451809043724500,4.439724609375,-0.7507781982421875,-0.4986419677734375,-0.0148468017578125
1718451809093495600,4.48949560546875,-0.8954925537109375,-0.472808837890625,-0.0836944580078125
1718451809143268000,4.53926806640625,-0.850555419921875,-0.4490966796875,-0.057586669921875
1718451809193039000,4.5890390625,-0.874786376953125,-0.4359588623046875,-0.0944976806640625
1718451809242811100,4.63881103515625,-0.8057708740234375,-0.4569244384765625,-0.11553955078125
1718451809292582100,4.68858203125,-0.8063812255859375,-0.452667236328125,0.0871734619140625
1718451809342354200,4.738354248046875,-0.930999755859375,-0.4285125732421875,0.1148223876953125
1718451809392125200,4.788125244140625,-0.93878173828125,-0.438079833984375,0.1206207275390625
1718451809441896200,4.837896240234375,-0.983856201171875,-0.4499053955078125,-0.0126953125
1718451809491668200,4.887668212890625,-0.9091949462890625,-0.441619873046875,-0.0656890869140625
1718451809541439000,4.93743896484375,-0.918121337890625,-0.47412109375,-0.090667724609375
1718451809591211000,4.9872109375,-0.941192626953125,-0.4047088623046875,-0.087249755859375
1718451809640982300,5.036982177734375,-1.0490264892578125,-0.234619140625,-0.089691162109375
1718451809690754000,5.086754150390625,-1.009429931640625,-0.20782470703125,-0.010009765625
1718451809740525300,5.136525390625,-0.8975830078125,-0.21673583984375,0.02093505859375
1718451809790296000,5.186296142578125,-0.9174652099609375,-0.2432708740234375,-0.1938018798828125
1718451809840068000,5.236068115234375,-1.0838623046875,-0.1892852783203125,-0.2473602294921875
1718451809889839000,5.285839111328125,-0.893157958984375,-0.148712158203125,-0.105621337890625
1718451809939611100,5.335611083984375,-0.8065948486328125,-0.31256103515625,-0.1962890625
1718451809989382100,5.385382080078125,-0.817413330078125,-0.334808349609375,-0.2190704345703125
1718451810039153200,5.435153076171875,-0.89398193359375,-0.2900390625,-0.1935577392578125
1718451810088925200,5.48492529296875,-0.9369964599609375,-0.26190185546875,-0.094329833984375
1718451810138695400,5.5346953125,-0.911834716796875,-0.378448486328125,-0.07318115234375
1718451810188467200,5.58446728515625,-0.870361328125,-0.4331207275390625,-0.0207672119140625
1718451810238238200,5.63423828125,-0.9464569091796875,-0.4150848388671875,0.0244140625
1718451810288009500,5.684009521484375,-0.9792022705078125,-0.3255615234375,0.0229339599609375
1718451810337781500,5.733781494140625,-1.2101898193359375,-0.4100189208984375,0.058380126953125
1718451810387552500,5.783552490234375,-0.8487396240234375,-0.4709320068359375,0.0190277099609375
1718451810437324300,5.83332421875,-1.2701416015625,-0.1778564453125,-0.1760711669921875
1718451810487095300,5.88309521484375,-0.7866058349609375,-0.1723175048828125,-0.258514404296875
1718451810536866300,5.9328662109375,-0.85491943359375,-0.168426513671875,-0.29949951171875
1718451810586638300,5.982638427734375,-0.548980712890625,-0.1811065673828125,0.0415496826171875
1718451810636409300,6.032409423828125,-0.7088470458984375,-0.2469482421875,-0.4329833984375
1718451810686181400,6.082181396484375,-0.59088134765625,-0.0687255859375,-0.1614990234375
1718451810735952400,6.131952392578125,-0.83856201171875,-0.35443115234375,-0.7763671875
1718451810785723400,6.181723388671875,-0.689483642578125,-0.3071746826171875,-0.64910888671875
1718451810835495400,6.231495361328125,-1.1448974609375,-0.3798675537109375,-0.942657470703125
1718451810885266400,6.281266357421875,-0.812469482421875,-0.382843017578125,-0.913970947265625
1718451810935037400,6.331037353515625,-0.866851806640625,-0.2694244384765625,-0.9254150390625
1718451810984809500,6.3808095703125,-0.4958648681640625,-0.128631591796875,-0.8417510986328125
1718451811034580500,6.43058056640625,-0.695556640625,-0.0600128173828125,-0.996978759765625
1718451811084352500,6.4803525390625,-0.458892822265625,-0.01788330078125,-0.7984161376953125
1718451811134123500,6.53012353515625,-0.270904541015625,-0.07818603515625,-0.81634521484375
1718451811183894500,6.57989453125,-0.2885284423828125,-0.1537322998046875,-0.870849609375
1718451811233666600,6.62966650390625,-0.2594146728515625,-0.2224578857421875,-0.8091583251953125
1718451811283437800,6.679437744140625,-0.325531005859375,-0.1609954833984375,-0.6207122802734375
1718451811333209600,6.729209716796875,-0.21148681640625,-0.2012786865234375,-0.81097412109375
1718451811382980600,6.778980712890625,-0.2363739013671875,-0.0748291015625,-0.8068695068359375
1718451811432751600,6.828751708984375,-0.3106689453125,-0.019012451171875,-0.8882598876953125
1718451811482523600,6.878523681640625,-0.1961212158203125,0.1314697265625,-1.037628173828125
1718451811532294700,6.928294677734375,-0.1857757568359375,0.3094940185546875,-0.968170166015625
1718451811582065700,6.978065673828125,-0.32452392578125,0.336669921875,-1.315826416015625
1718451811631837700,7.027837646484375,-0.445037841796875,0.4471893310546875,-1.3792266845703125
1718451811681608700,7.077608642578125,-0.3301849365234375,0.28814697265625,-1.59747314453125
1718451811731380700,7.127380615234375,-0.2242279052734375,0.216644287109375,-1.271026611328125
1718451811781151500,7.1771513671875,0.0066375732421875,0.3450469970703125,-0.7288665771484375
1718451811830922500,7.226922607421875,0.077911376953125,0.169158935546875,-0.8589324951171875
1718451811880694500,7.276694580078125,-0.0171966552734375,0.341217041015625,-0.7562103271484375
1718451811930465800,7.3264658203125,-0.55712890625,0.606781005859375,-0.740936279296875
1718451811980236500,7.376236572265625,-0.3208465576171875,0.3186492919921875,-0.6475372314453125
1718451812030008600,7.426008544921875,-0.17572021484375,0.489776611328125,-0.2491455078125
1718451812079779600,7.475779541015625,-0.30291748046875,0.4813995361328125,-0.6767120361328125
1718451812129550600,7.525550537109375,-0.718597412109375,1.024749755859375,-0.251922607421875
1718451812179322600,7.575322509765625,-0.708465576171875,1.048797607421875,-0.363189697265625
1718451812229093600,7.62509375,-0.6576995849609375,1.141754150390625,-0.4197845458984375
1718451812278864600,7.67486474609375,0.051116943359375,0.639495849609375,-0.693634033203125
1718451812328635600,7.7246357421875,0.0532073974609375,0.4454498291015625,-1.0127716064453125
1718451812378407700,7.77440771484375,0.0434112548828125,0.6146392822265625,-0.44000244140625
1718451812428178400,7.824178466796875,-0.020416259765625,0.4531707763671875,-0.7006072998046875
1718451812477949700,7.87394970703125,0.343719482421875,0.2399444580078125,-1.70623779296875
1718451812527721700,7.9237216796875,0.6274566650390625,0.6878204345703125,-1.26580810546875
1718451812577492700,7.97349267578125,0.6363677978515625,0.91912841796875,-0.70220947265625
1718451812627263500,8.023263427734374,-0.1594390869140625,0.80828857421875,-1.07208251953125
1718451812677035500,8.073035400390625,-0.45526123046875,1.2081451416015625,-0.34820556640625
1718451812726806500,8.122806640625,-0.2409820556640625,1.132598876953125,-0.4088592529296875
1718451812776577800,8.172577880859375,0.4189300537109375,0.6875457763671875,-0.53399658203125
1718451812826349800,8.222349853515626,-0.1849517822265625,0.8394317626953125,-0.43560791015625
1718451812876120600,8.27212060546875,-0.2422943115234375,0.70849609375,-0.471923828125
1718451812925891600,8.3218916015625,-0.0721435546875,0.6374664306640625,-0.5611419677734375
1718451812975663600,8.37166357421875,-0.254425048828125,0.837493896484375,-0.953948974609375
1718451813025434600,8.4214345703125,-0.089019775390625,0.7748870849609375,-0.8293914794921875
1718451813075205600,8.47120556640625,-0.3594970703125,0.926483154296875,-1.042755126953125
1718451813124977000,8.520976806640626,-0.46820068359375,1.0146331787109375,-0.9796142578125
1718451813174749000,8.5707490234375,-0.40362548828125,0.9676971435546875,-0.7210540771484375
1718451813224520000,8.62052001953125,-0.1195526123046875,0.77679443359375,-0.637481689453125
1718451813274290700,8.670290771484375,-0.2140350341796875,0.8306121826171875,-0.747344970703125
1718451813324062700,8.720062744140625,-0.5034942626953125,0.9655609130859375,-0.5098419189453125
1718451813373834000,8.769833984375,-0.44683837890625,0.9212493896484375,-0.0279541015625
1718451813423605000,8.81960498046875,0.028961181640625,0.3765106201171875,-0.2814788818359375
1718451813473375700,8.869375732421876,-0.43902587890625,0.6157073974609375,-0.7122955322265625
1718451813523147800,8.919147705078124,0.10247802734375,0.3257598876953125,-0.748809814453125
1718451813572918800,8.968918701171875,0.426239013671875,0.3514862060546875,-0.7960662841796875
1718451813622690000,9.01868994140625,0.1953277587890625,0.1620941162109375,-1.2136383056640625
1718451813672462000,9.068462158203126,-0.0279693603515625,0.55712890625,-0.7375946044921875
1718451813722232800,9.11823291015625,-0.219207763671875,0.616943359375,-1.5357208251953125
1718451813772003800,9.16800390625,-0.3039093017578125,0.6705780029296875,-0.4252166748046875
1718451813821774800,9.21777490234375,-0.253143310546875,0.6815185546875,-0.7983551025390625
1718451813871547000,9.267546875,-0.0209503173828125,0.493927001953125,-1.014739990234375
1718451813921318000,9.31731787109375,-0.1215057373046875,0.650146484375,-0.641143798828125
1718451813971089000,9.3670888671875,-0.1216278076171875,0.2869720458984375,-0.8439788818359375
1718451814020861000,9.41686083984375,-0.00311279296875,0.2595672607421875,-0.852203369140625
1718451814070632000,9.4666318359375,-0.1512451171875,-0.0236663818359375,-0.54132080078125
1718451814120402700,9.516402587890624,0.037994384765625,0.29150390625,-0.8646392822265625
1718451814170174700,9.5661748046875,0.2362060546875,1.2177886962890625,-0.94219970703125
1718451814219945700,9.61594580078125,-0.1461334228515625,1.04315185546875,-1.29669189453125
1718451814269716700,9.665716796875,0.151580810546875,1.007110595703125,-0.92388916015625
1718451814319487500,9.715487548828126,0.0421905517578125,0.7381439208984375,-0.12298583984375
1718451814369259500,9.765259521484374,0.4105682373046875,0.7315521240234375,-0.5487213134765625
1718451814419030800,9.81503076171875,0.08978271484375,0.95086669921875,-0.3443450927734375
1718451814468801800,9.8648017578125,0.127777099609375,1.5876922607421875,-0.755828857421875
1718451814518573800,9.91457373046875,0.009979248046875,-0.719329833984375,0.3791046142578125
1718451814568344600,9.964344482421875,-0.2057952880859375,0.5744171142578125,0.44720458984375
1718451814618115600,10.014115478515626,0.4878997802734375,0.7876129150390625,-0.0912933349609375
1718451814667886800,10.063886962890624,1.0405120849609375,1.4274139404296875,-1.7840728759765625
1718451814717659000,10.113658935546875,0.0591278076171875,0.64312744140625,0.032379150390625
1718451814767429600,10.1634296875,-0.0197906494140625,1.0785369873046875,0.32794189453125
1718451814817200600,10.21320068359375,-0.858642578125,0.858306884765625,0.0861663818359375
1718451814866971600,10.2629716796875,-0.1035003662109375,0.8426971435546875,0.377777099609375
1718451814916743700,10.31274365234375,-0.600006103515625,1.154266357421875,-0.0400848388671875
1718451814966514700,10.3625146484375,-0.209014892578125,0.810638427734375,-0.0176849365234375
1718451815016285700,10.41228564453125,-0.0953521728515625,0.87091064453125,0.2047119140625
1718451815066056700,10.462056640625,0.153961181640625,1.0377655029296875,-0.007720947265625
1718451815115829000,10.5118291015625,0.07452392578125,0.93280029296875,-0.0724639892578125
1718451815165599700,10.561599853515625,-0.049896240234375,1.0132293701171875,0.13519287109375
1718451815215371000,10.61137109375,0.015869140625,1.1480560302734375,-0.4668731689453125
1718451815265142000,10.66114208984375,0.153961181640625,1.3290557861328125,-0.313201904296875
1718451815314914000,10.7109140625,0.4091949462890625,1.31854248046875,-0.35015869140625
1718451815364684800,10.760684814453125,-0.4916229248046875,1.5226287841796875,0.413787841796875
1718451815414455800,10.810455810546875,0.28973388671875,1.6842498779296875,0.30682373046875
1718451815464227000,10.86022705078125,-0.249664306640625,0.9968719482421875,0.082061767578125
1718451815513999000,10.9099990234375,-0.124359130859375,0.5421600341796875,-0.0736083984375
1718451815563769900,10.959769775390624,-0.0878448486328125,0.52545166015625,0.133819580078125
1718451815613540900,11.009540771484374,-0.11328125,0.384124755859375,0.1878204345703125
1718451815663312000,11.059311767578125,0.060394287109375,0.3848876953125,0.315277099609375
1718451815713084000,11.109083984375,1.4720001220703125,1.389495849609375,-0.99310302734375
1718451815762855000,11.15885498046875,0.706939697265625,1.608856201171875,-0.5364532470703125
1718451815812626000,11.2086259765625,0.3158111572265625,0.4185943603515625,0.711883544921875
1718451815862397000,11.25839697265625,-0.2859954833984375,2.224029541015625,-0.6941986083984375
1718451815912169000,11.3081689453125,-0.5146484375,0.669769287109375,0.5231475830078125
1718451815961939700,11.357939697265625,-0.2714385986328125,1.1875457763671875,0.04449462890625
1718451816011711000,11.4077109375,0.251800537109375,1.008880615234375,-0.3441009521484375
1718451816061482000,11.45748193359375,-0.0904998779296875,0.6720428466796875,-0.148529052734375
1718451816111253000,11.5072529296875,-0.1437835693359375,0.9200439453125,-0.5337982177734375
1718451816161025000,11.55702490234375,0.2540130615234375,0.8878326416015625,-0.24603271484375
1718451816210796000,11.606796142578125,-0.0604705810546875,0.987152099609375,-0.086761474609375
1718451816260567000,11.656567138671875,0.0858612060546875,1.0771484375,-0.049407958984375
1718451816310338000,11.706338134765625,-0.005462646484375,0.9965362548828125,-0.6872100830078125
1718451816360109000,11.756109130859375,0.02459716796875,1.3297119140625,-0.554443359375
1718451816409881000,11.805881103515626,0.34832763671875,1.3385772705078125,-0.62274169921875
1718451816459651800,11.85565185546875,-0.4042816162109375,1.4482574462890625,0.2390289306640625
1718451816509423000,11.905423095703124,0.635955810546875,2.0013275146484375,0.2109222412109375
1718451816559194000,11.955194091796875,-0.593414306640625,0.93231201171875,0.09747314453125
1718451816608965000,12.004965087890625,0.08544921875,0.553009033203125,0.0785980224609375
1718451816658737000,12.05473681640625,-0.087646484375,0.4453887939453125,0.057281494140625
1718451816708508000,12.1045078125,-0.2601470947265625,0.305999755859375,0.271484375
1718451816758279200,12.154279052734376,0.231231689453125,0.5189361572265625,0.213714599609375
1718451816808050200,12.20405029296875,2.157318115234375,1.994781494140625,-2.2558135986328125
1718451816857821000,12.253821044921875,0.2425537109375,0.66473388671875,0.2928009033203125
1718451816907592000,12.303592041015625,0.182708740234375,0.7245330810546875,0.95941162109375
1718451816957364000,12.353364013671875,-1.00482177734375,1.87664794921875,-0.242950439453125
1718451817007135200,12.40313525390625,-0.2690582275390625,0.4684906005859375,0.4905853271484375
1718451817056906000,12.452906005859376,0.0378875732421875,1.5457763671875,-0.4234161376953125
1718451817106676700,12.5026767578125,0.177734375,0.7843017578125,-0.2277069091796875
1718451817156447700,12.55244775390625,-0.13665771484375,0.6053466796875,-0.07562255859375
1718451817206218800,12.60221875,0.0166473388671875,0.9154815673828125,-0.380218505859375
1718451817255989800,12.65198974609375,0.047821044921875,0.9174041748046875,-0.123321533203125
1718451817305761800,12.70176171875,0.21685791015625,1.0828704833984375,-0.0993194580078125
1718451817355532500,12.751532470703125,-0.2373809814453125,1.1021728515625,-0.536224365234375
1718451817405303800,12.8013037109375,0.3906402587890625,1.236328125,-0.8124542236328125
1718451817455074800,12.85107470703125,0.0785064697265625,1.0240478515625,-0.6124725341796875
1718451817504845800,12.900845703125,0.0587005615234375,1.6724395751953125,0.0380859375
1718451817554616600,12.950616455078125,0.1596832275390625,1.984161376953125,0.3134307861328125
1718451817604388600,13.000388671875,-0.2313079833984375,1.0865936279296875,0.082061767578125
1718451817654160000,13.050159912109375,-0.06805419921875,0.5902557373046875,-0.1433258056640625
1718451817703931000,13.099930908203126,-0.0439453125,0.46722412109375,0.0098114013671875
1718451817753701600,13.14970166015625,-0.150360107421875,0.24652099609375,0.2015228271484375
1718451817803472600,13.19947265625,-0.0428466796875,0.41009521484375,0.4136199951171875
1718451817853244000,13.249243896484375,2.3079681396484375,1.5081634521484375,-1.8203277587890625
1718451817903014700,13.2990146484375,0.2936553955078125,0.9514923095703125,-0.3025665283203125
1718451817952786700,13.34878662109375,0.1315155029296875,0.30517578125,1.259521484375
1718451818002557700,13.3985576171875,-0.1773681640625,2.818939208984375,-1.776580810546875
1718451818052328700,13.44832861328125,-0.301300048828125,0.313568115234375,0.749664306640625
1718451818102099700,13.498099609375,-0.284332275390625,1.506439208984375,0.1343231201171875
1718451818151870700,13.54787060546875,0.1310577392578125,1.0031280517578125,-0.473419189453125
1718451818201641500,13.597641357421875,-0.00421142578125,0.6271209716796875,0.0567169189453125
1718451818251412700,13.647412841796875,-0.4068603515625,0.916168212890625,-0.28411865234375
1718451818301183700,13.697183837890625,0.489227294921875,0.84051513671875,-0.30224609375
1718451818350954500,13.74695458984375,-0.1875152587890625,1.090423583984375,-0.19158935546875
1718451818400726500,13.7967265625,0.0363006591796875,1.136932373046875,-0.4889984130859375
1718451818450497500,13.84649755859375,0.14471435546875,1.4222412109375,-0.69140625
1718451818500268800,13.896268798828125,0.01513671875,1.0531463623046875,-0.81951904296875
1718451818550039600,13.94603955078125,0.0543365478515625,1.4075164794921875,-0.60260009765625
1718451818599810600,13.995810546875,-0.6985321044921875,1.538665771484375,0.261505126953125
1718451818649581600,14.04558154296875,0.8397369384765625,1.8521575927734375,-0.126953125
1718451818699352800,14.095352783203126,-0.632568359375,0.8580780029296875,0.0695343017578125
1718451818749123600,14.14512353515625,0.128082275390625,0.4699249267578125,-0.042877197265625
1718451818798894600,14.19489453125,-0.1112823486328125,0.4251861572265625,0.115478515625
1718451818848665600,14.24466552734375,-0.2104949951171875,0.4038543701171875,0.451141357421875
1718451818898436600,14.2944365234375,0.3474884033203125,0.5649871826171875,0.100494384765625
1718451818948208600,14.344208740234375,0.8483123779296875,1.9972076416015625,-2.9496917724609375
1718451818997979600,14.393979736328125,0.020721435546875,0.43560791015625,0.2058258056640625
1718451819047750700,14.443750732421876,0.236328125,1.1166229248046875,0.796539306640625
1718451819097521700,14.493521728515624,-0.8736572265625,1.35321044921875,-0.1992340087890625
1718451819147293000,14.54329296875,-0.2978515625,0.53485107421875,0.2703399658203125
1718451819197064000,14.59306396484375,0.0885162353515625,1.4139404296875,-0.4476165771484375
1718451819246835000,14.6428349609375,0.0623931884765625,0.7386016845703125,-0.24835205078125
1718451819296606000,14.69260595703125,-0.2032470703125,0.6686859130859375,-0.2442779541015625
1718451819346377000,14.742376953125,0.158416748046875,0.9613189697265625,-0.3206024169921875
1718451819396148000,14.79214794921875,-0.1630859375,0.8994293212890625,-0.1507568359375
1718451819445918700,14.841918701171876,0.2130889892578125,1.1595306396484375,-0.3928680419921875
1718451819495690000,14.89168994140625,-0.0331878662109375,1.1225128173828125,-0.6712188720703125
1718451819545461000,14.9414609375,0.068328857421875,1.240936279296875,-0.7993621826171875
1718451819595231700,14.991231689453125,0.20318603515625,1.3775787353515625,-0.720458984375
1718451819645002800,15.041002685546875,-0.7700042724609375,1.65570068359375,0.281585693359375
1718451819694774000,15.09077392578125,0.72943115234375,1.685791015625,-0.0971832275390625
1718451819744545000,15.140544921875,-0.5278778076171875,0.8227081298828125,-0.012054443359375
1718451819794315800,15.190315673828126,0.1168670654296875,0.4705352783203125,-0.0195159912109375
1718451819844086800,15.240086669921874,-0.085235595703125,0.4472808837890625,0.1128692626953125
1718451819893858000,15.289858154296875,-0.25518798828125,0.3494415283203125,0.4534759521484375
1718451819943628800,15.33962890625,0.3641357421875,0.5967864990234375,-0.0404205322265625
1718451819993399800,15.38939990234375,0.5464630126953125,1.9004669189453125,-3.15521240234375
1718451820043170800,15.4391708984375,-0.18792724609375,0.4908905029296875,0.11529541015625
1718451820092942000,15.488942138671876,0.3448333740234375,1.4188232421875,0.70947265625
1718451820142712800,15.538712890625,-0.945556640625,0.986785888671875,0.0318603515625
1718451820192483600,15.588483642578124,-0.2700042724609375,0.7179718017578125,0.4094390869140625
1718451820242254800,15.6382548828125,-0.07525634765625,1.2547149658203125,-0.33111572265625
1718451820292025900,15.68802587890625,0.11810302734375,0.7501983642578125,-0.3390960693359375
1718451820341796900,15.737796875,-0.30438232421875,0.721405029296875,-0.28314208984375
1718451820391567600,15.787567626953125,0.343353271484375,0.92413330078125,-0.3050994873046875
1718451820441339000,15.8373388671875,-0.37542724609375,0.955078125,-0.1871490478515625
1718451820491110000,15.88710986328125,0.412322998046875,1.07177734375,-0.3681793212890625
1718451820540880600,15.936880615234376,-0.1002349853515625,0.934173583984375,-0.75457763671875
1718451820590651600,15.986651611328124,-0.0318756103515625,1.28680419921875,-0.8557586669921875
1718451820640423000,16.0364228515625,0.2084808349609375,1.4473419189453125,-0.6341094970703125
1718451820690193700,16.086193603515625,-0.5904083251953125,1.66009521484375,0.2800445556640625
1718451820739964700,16.135964599609373,0.6903076171875,1.81005859375,-0.02313232421875
1718451820789735700,16.185735595703125,-0.5066986083984375,0.836700439453125,0.08489990234375
1718451820839507000,16.2355068359375,0.15142822265625,0.424957275390625,-0.0306854248046875
1718451820889277700,16.285277587890626,-0.1691131591796875,0.42083740234375,0.0492706298828125
1718451820939048700,16.335048583984374,-0.28009033203125,0.42523193359375,0.3692626953125
1718451820988819700,16.38481982421875,0.3324127197265625,0.5392608642578125,0.1680450439453125
1718451821038590700,16.4345908203125,1.0009765625,1.984466552734375,-3.2938232421875
1718451821088361700,16.48436181640625,0.0243377685546875,0.5471343994140625,0.3784637451171875
1718451821138132000,16.534132080078123,0.2315216064453125,1.8804931640625,-0.3580169677734375
1718451821187903200,16.5839033203125,-0.754791259765625,0.68988037109375,0.1270751953125
1718451821237674200,16.63367431640625,-0.1865081787109375,1.2888641357421875,-0.216522216796875
1718451821287445000,16.683445068359376,0.2921295166015625,0.9489593505859375,-0.358428955078125
1718451821337216300,16.73321630859375,0.0132293701171875,0.7322235107421875,-0.0712738037109375
1718451821386987300,16.7829873046875,-0.3514251708984375,0.6614532470703125,-0.382781982421875
1718451821436758000,16.832758056640625,0.481353759765625,0.8909912109375,-0.2948150634765625
1718451821486529000,16.882529052734377,-0.203460693359375,1.005645751953125,-0.1933441162109375
1718451821536300300,16.93230029296875,0.16705322265625,1.1587677001953125,-0.2119140625
1718451821586070000,16.982070068359373,0.076873779296875,1.1461944580078125,-0.9277801513671875
1718451821635841000,17.031841064453126,-0.1170196533203125,1.0847015380859375,-0.9733123779296875
1718451821685612300,17.0816123046875,0.2790374755859375,1.5891265869140625,-0.612945556640625
1718451821735383000,17.131383056640626,-0.7007904052734375,1.7309417724609375,0.3613128662109375
1718451821785154000,17.181154052734374,0.6291046142578125,1.5449066162109375,-0.1149139404296875
1718451821834925000,17.230925048828126,-0.5096282958984375,0.77777099609375,0.021026611328125
1718451821884696300,17.2806962890625,0.11907958984375,0.5267791748046875,-0.1219024658203125
1718451821934466000,17.330466064453127,-0.1962432861328125,0.3681488037109375,0.1779632568359375
1718451821984237300,17.3802373046875,-0.102935791015625,0.3384552001953125,0.30694580078125
1718451822034008000,17.430008056640624,0.3512420654296875,0.728668212890625,0.0885467529296875
1718451822083779000,17.479779052734376,0.968475341796875,1.8242645263671875,-2.76654052734375
1718451822133549600,17.529549560546876,0.1652069091796875,0.5994415283203125,0.2390289306640625
1718451822183320800,17.57932080078125,0.0271759033203125,1.5412750244140625,-0.0880584716796875
1718451822233090600,17.629090576171876,-0.7618255615234375,0.7173919677734375,0.0973052978515625
1718451822282861800,17.67886181640625,-0.209136962890625,1.018035888671875,0.3277130126953125
1718451822332632800,17.7286328125,-0.0546722412109375,1.1404266357421875,-0.4972991943359375
1718451822382403800,17.77840380859375,0.141204833984375,0.725006103515625,-0.33203125
1718451822432174600,17.828174560546874,-0.3038177490234375,0.7091217041015625,-0.2365264892578125
1718451822481944800,17.87794482421875,0.32464599609375,0.8899078369140625,-0.3253631591796875
1718451822531715800,17.9277158203125,-0.27801513671875,0.947052001953125,-0.2369842529296875
1718451822581486600,17.977486572265626,0.2997589111328125,1.1982574462890625,-0.18182373046875
1718451822631257900,18.0272578125,-0.03594970703125,1.021148681640625,-0.92694091796875
1718451822681028900,18.07702880859375,0.006591796875,1.2491607666015625,-0.8666534423828125
1718451822730798800,18.126798828125,0.18310546875,1.3956146240234375,-0.6313018798828125
1718451822780569900,18.17656982421875,-0.6578216552734375,1.63336181640625,0.31329345703125
1718451822830340900,18.2263408203125,0.775543212890625,1.8621978759765625,-0.0344085693359375
1718451822880111600,18.276111572265624,-0.489959716796875,0.884918212890625,0.0727996826171875
1718451822929881900,18.3258818359375,0.0239715576171875,0.5656890869140625,-0.010711669921875
1718451822979652600,18.375652587890624,-0.0949859619140625,0.3821868896484375,0.08636474609375
1718451823029423600,18.425423583984376,-0.2307281494140625,0.286865234375,0.427703857421875
1718451823079193900,18.47519384765625,0.5110321044921875,0.59783935546875,-0.221954345703125
1718451823128964600,18.524964599609376,0.93231201171875,1.7628936767578125,-2.9736328125
1718451823178735600,18.574735595703125,0.0767059326171875,0.5977325439453125,0.410675048828125
1718451823228506600,18.624506591796877,0.1920318603515625,1.330810546875,0.2320404052734375
1718451823278276400,18.6742763671875,-0.908294677734375,0.7068634033203125,0.00091552734375
1718451823328047600,18.724047607421873,-0.1051788330078125,1.0413818359375,0.282012939453125
1718451823377818600,18.773818603515625,-0.1798095703125,1.29180908203125,-0.6505126953125
1718451823427588400,18.82358837890625,0.205596923828125,0.6533050537109375,-0.28973388671875
1718451823477359600,18.873359619140626,-0.102386474609375,0.716064453125,-0.0877227783203125
1718451823527130600,18.923130615234374,0.0744781494140625,0.844146728515625,-0.321990966796875
1718451823576901400,18.9729013671875,-0.0734710693359375,0.8133392333984375,-0.2409210205078125
1718451823626671600,19.022671630859374,0.2175750732421875,1.146942138671875,-0.3038330078125
1718451823676442600,19.072442626953126,-0.294921875,0.990570068359375,-0.5429229736328125
1718451823726213400,19.12221337890625,0.3769378662109375,1.232025146484375,-0.675079345703125
1718451823775983600,19.171983642578127,0.22650146484375,1.0142364501953125,-0.938446044921875
1718451823825754600,19.221754638671875,0.2310028076171875,1.537567138671875,0.174102783203125
1718451823875525400,19.271525390625,-0.52728271484375,1.779693603515625,0.13763427734375
1718451823925295600,19.321295654296875,0.199066162109375,1.21405029296875,-0.207763671875
1718451823975066600,19.371066650390624,-0.4912109375,0.81878662109375,-0.036376953125
1718451824024837400,19.42083740234375,0.005401611328125,0.45391845703125,-0.074310302734375
1718451824074607600,19.470607666015624,-0.1446685791015625,0.335357666015625,0.1836700439453125
1718451824124378600,19.520378662109376,0.0561065673828125,0.4822235107421875,0.566009521484375
1718451824174148600,19.570148681640624,1.094207763671875,0.8917999267578125,-0.58453369140625
1718451824223919600,19.619919677734377,0.587158203125,1.9586181640625,-1.42510986328125
1718451824273690600,19.669690673828125,-0.018341064453125,0.3057861328125,0.1995086669921875
1718451824323460600,19.719460693359373,0.483489990234375,2.066558837890625,-1.403228759765625
1718451824373231600,19.769231689453125,-0.6692962646484375,0.7440948486328125,0.730316162109375
1718451824423002600,19.819002685546874,-0.225799560546875,1.070556640625,0.11627197265625
1718451824472772600,19.868772705078126,0.070770263671875,1.28131103515625,-0.52783203125
1718451824522543600,19.918543701171874,0.024871826171875,0.59136962890625,-0.39239501953125
1718451824572313600,19.968313720703126,-0.220703125,0.6905059814453125,-0.3137054443359375
1718451824622084600,20.018084716796874,0.35003662109375,0.9236297607421875,-0.2448883056640625
1718451824671855600,20.067855712890626,-0.165924072265625,1.0086517333984375,-0.320556640625
1718451824721625600,20.11762548828125,0.08978271484375,1.093658447265625,-0.3734283447265625
1718451824771396600,20.167396728515627,0.104034423828125,1.2431488037109375,-0.8157958984375
1718451824821166600,20.21716650390625,0.0611724853515625,1.1912841796875,-0.715179443359375
1718451824870937600,20.2669375,0.23565673828125,1.4889068603515625,-0.708343505859375
1718451824920707600,20.31670751953125,-0.7138671875,1.709014892578125,0.279022216796875
1718451824970478600,20.366478515625,0.6104278564453125,1.584381103515625,-0.1809234619140625
1718451825020249600,20.41624951171875,-0.53436279296875,0.7131805419921875,0.001251220703125
1718451825070019800,20.466019775390624,0.110931396484375,0.4356231689453125,-0.01904296875
1718451825119790600,20.51579052734375,-0.154937744140625,0.4167938232421875,0.1452484130859375
1718451825169560300,20.565560302734376,-0.23834228515625,0.3773345947265625,0.323272705078125
1718451825219331600,20.61533154296875,0.66094970703125,0.795074462890625,-0.4346771240234375
1718451825269101600,20.6651015625,0.9031829833984375,1.3329620361328125,-2.230438232421875
1718451825318872600,20.71487255859375,-0.017486572265625,0.6694793701171875,0.2149505615234375
1718451825368642600,20.764642578125,0.1875762939453125,1.2660980224609375,0.518463134765625
1718451825418413300,20.814413330078125,-0.8901214599609375,1.169830322265625,-0.10699462890625
1718451825468183600,20.86418359375,-0.2553253173828125,0.6000823974609375,0.2941741943359375
1718451825517954600,20.91395458984375,-0.1285858154296875,1.3875579833984375,-0.46026611328125
1718451825567724500,20.963724609375,0.1327362060546875,0.6626434326171875,-0.383270263671875
1718451825617495600,21.01349560546875,-0.1653594970703125,0.73089599609375,-0.3053436279296875
1718451825667265500,21.063265625,0.2414398193359375,0.8701171875,-0.2732391357421875
1718451825717036500,21.11303662109375,-0.16680908203125,0.9701690673828125,-0.2603607177734375
1718451825766806500,21.162806640625,0.07794189453125,1.0638580322265625,-0.4538421630859375
1718451825816577500,21.21257763671875,0.126373291015625,1.1841278076171875,-0.607666015625
1718451825866347500,21.262347412109374,-0.019775390625,1.2224273681640625,-0.8736419677734375
1718451825916118500,21.312118408203126,0.15423583984375,1.3107757568359375,-0.8557891845703125
1718451825965888500,21.361888427734375,-0.190765380859375,1.593017578125,0.271392822265625
1718451826015659500,21.411659423828127,0.5073089599609375,1.832733154296875,-0.045806884765625
1718451826065429500,21.461429443359375,-0.38275146484375,0.835296630859375,-0.020904541015625
1718451826115200500,21.511200439453123,0.0131988525390625,0.588623046875,-0.1207733154296875
1718451826164970800,21.560970703125,-0.1045684814453125,0.4282379150390625,0.0500335693359375
1718451826214741500,21.610741455078124,-0.181854248046875,0.391082763671875,0.3630218505859375
1718451826264511500,21.660511474609375,0.1437835693359375,0.46807861328125,0.311920166015625
1718451826314282800,21.71028271484375,1.374969482421875,1.7747650146484375,-2.8644256591796875
1718451826364052500,21.760052490234376,0.1906890869140625,0.728118896484375,-0.1362152099609375
1718451826413822700,21.80982275390625,-0.107452392578125,1.0925140380859375,0.60040283203125
1718451826463593500,21.859593505859376,-0.986846923828125,1.3485260009765625,-0.0248565673828125
1718451826513363700,21.90936376953125,-0.356292724609375,0.7083740234375,0.12042236328125
1718451826563134500,21.959134521484376,-0.135772705078125,1.2028350830078125,-0.383758544921875
1718451826612904400,22.008904541015625,0.138458251953125,0.73992919921875,-0.3321075439453125
1718451826662674700,22.0586748046875,-0.3200531005859375,0.6690673828125,-0.400909423828125
1718451826712445400,22.108445556640625,0.4085540771484375,0.901519775390625,-0.2699127197265625
1718451826762215700,22.158215576171877,-0.239501953125,0.953521728515625,-0.2534637451171875
1718451826811986400,22.207986328125,0.026397705078125,1.2261810302734375,-0.393035888671875
1718451826861756700,22.257756591796873,0.20458984375,1.173431396484375,-0.88616943359375
1718451826911526400,22.3075263671875,-0.037109375,1.1697540283203125,-0.81524658203125
1718451826961297400,22.35729736328125,0.2435150146484375,1.548248291015625,-0.495697021484375
1718451827011067600,22.407067626953125,-0.70147705078125,1.6716766357421875,0.265411376953125
1718451827060838400,22.45683837890625,0.49041748046875,1.53887939453125,-0.0959930419921875
1718451827110608600,22.506608642578126,-0.4120330810546875,0.75738525390625,-0.02337646484375
1718451827160378000,22.556378173828126,0.00634765625,0.3817138671875,-0.001220703125
1718451827210149400,22.6061494140625,-0.162811279296875,0.355987548828125,0.1307373046875
1718451827259919000,22.655919189453126,-0.2811126708984375,0.351593017578125,0.3941497802734375
1718451827309689300,22.705689453125,0.6694793701171875,0.881561279296875,-0.3218536376953125
1718451827359460400,22.75546044921875,0.651214599609375,1.9679107666015625,-2.711700439453125
1718451827409230300,22.805230224609375,0.008544921875,0.3754425048828125,0.7911224365234375
1718451827459000300,22.855000244140626,-0.0477752685546875,1.7989501953125,-0.4226531982421875
1718451827508771000,22.90477099609375,-0.43487548828125,0.7088470458984375,0.104034423828125
1718451827558541300,22.954541259765627,-0.3503570556640625,0.9663848876953125,-0.1599884033203125
1718451827608312300,23.004312255859375,0.267547607421875,1.0363311767578125,-0.6077880859375
1718451827658082300,23.054082275390623,0.0070343017578125,0.727691650390625,-0.047454833984375
1718451827707852300,23.103852294921875,-0.265380859375,0.665740966796875,-0.279388427734375
1718451827757622300,23.153622314453123,0.3149261474609375,0.836334228515625,-0.4359893798828125
1718451827807393300,23.203393310546875,-0.083038330078125,1.05877685546875,-0.3859710693359375
1718451827857163300,23.253163330078124,0.1723480224609375,1.1450958251953125,-0.3520965576171875
1718451827906933200,23.302933349609376,0.0318145751953125,1.18560791015625,-0.767822265625
1718451827956704300,23.352704345703124,0.088531494140625,1.068145751953125,-0.7806396484375
1718451828006474200,23.40247412109375,0.3519134521484375,1.5335693359375,-0.4495086669921875
1718451828056244500,23.452244384765624,-0.634246826171875,1.8770751953125,0.2524871826171875
1718451828106015200,23.50201513671875,0.259246826171875,1.2674102783203125,0
1718451828155786000,23.551785888671876,-0.3569488525390625,0.6567840576171875,-0.1477508544921875
1718451828205556000,23.601555908203125,-0.0220794677734375,0.364715576171875,0.012664794921875
1718451828255326000,23.651325927734376,-0.2275848388671875,0.37969970703125,0.1623077392578125
1718451828305097200,23.70109716796875,-0.1959686279296875,0.4071197509765625,0.4312896728515625
1718451828354867000,23.750866943359377,1.357269287109375,1.034576416015625,-0.6789398193359375
1718451828404637200,23.80063720703125,0.7614288330078125,1.7592926025390625,-1.784027099609375
1718451828454407000,23.850406982421877,0.010650634765625,0.566986083984375,0.89874267578125
1718451828504178000,23.900177978515625,0.156494140625,2.293365478515625,-1.2553863525390625
1718451828553948000,23.949947998046873,-0.469085693359375,0.94158935546875,0.4470672607421875
1718451828603718100,23.99971826171875,-0.3256683349609375,1.0591888427734375,-0.4744415283203125
1718451828653487900,24.04948779296875,0.2445220947265625,0.9118499755859375,-0.1716766357421875
1718451828703259000,24.0992587890625,-0.14794921875,0.7084503173828125,-0.14532470703125
1718451828753029000,24.149029052734374,-0.223541259765625,0.74725341796875,-0.5726776123046875
1718451828802799000,24.198799072265626,0.2753448486328125,0.8383331298828125,-0.13372802734375
1718451828852569000,24.248569091796874,0.0343170166015625,1.1521759033203125,-0.1709747314453125
1718451828902339800,24.29833984375,-0.1417083740234375,1.0719757080078125,-0.486053466796875
1718451828952110000,24.348110107421874,0.2200775146484375,1.312286376953125,-0.7534637451171875
1718451829001879800,24.3978798828125,0.284698486328125,1.1002960205078125,-0.7813720703125
1718451829051650000,24.447650146484374,0.389617919921875,1.47222900390625,-0.4024658203125
1718451829101420000,24.497419921875,-0.6789093017578125,1.6645050048828125,0.1927490234375
1718451829151191000,24.54719091796875,0.1635589599609375,1.2597503662109375,-0.19512939453125
1718451829200960800,24.596960693359375,-0.4279022216796875,0.710174560546875,-0.041839599609375
1718451829250731000,24.64673095703125,0.0634613037109375,0.3992156982421875,-0.014190673828125
1718451829300501000,24.6965009765625,-0.0916900634765625,0.364959716796875,0.0664825439453125
1718451829350271000,24.74627099609375,-0.2000274658203125,0.370941162109375,0.430999755859375
1718451829400041700,24.796041748046875,0.9771575927734375,0.9383697509765625,-0.7740936279296875
1718451829449812000,24.84581201171875,0.8976593017578125,1.852935791015625,-1.8369598388671875
1718451829499581700,24.895581787109375,-0.1940460205078125,0.0213165283203125,0.7208709716796875
1718451829549352000,24.94535205078125,1.0560455322265625,2.13641357421875,-0.1155242919921875
1718451829599122000,24.995121826171875,-0.997283935546875,0.7277374267578125,0.196533203125
1718451829648892000,25.044891845703123,-0.266265869140625,0.5221405029296875,0.19451904296875
1718451829698663000,25.094662841796875,-0.002471923828125,1.640899658203125,-0.573944091796875
1718451829748433000,25.144432861328124,0.01287841796875,0.6282806396484375,-0.1205902099609375
1718451829798203000,25.194202880859375,-0.37286376953125,0.685089111328125,-0.4441986083984375
1718451829847972900,25.243972900390624,0.5261993408203125,0.8953704833984375,-0.296417236328125
1718451829897743000,25.2937431640625,-0.2553863525390625,1.0078125,-0.388153076171875
1718451829947512800,25.343512939453124,0.1372833251953125,1.0945587158203125,-0.500946044921875
1718451829997283000,25.393282958984376,0.3675537109375,1.2495574951171875,-0.5715789794921875
1718451830047053800,25.4430537109375,-0.001739501953125,1.135467529296875,-1.02178955078125
1718451830096823800,25.49282373046875,0.3849029541015625,1.533660888671875,0.035614013671875
1718451830146593300,25.54259326171875,-0.4627838134765625,1.8058319091796875,0.252899169921875
1718451830196363500,25.592363525390624,0.1468353271484375,1.0994720458984375,-0.11651611328125
1718451830246133200,25.64213330078125,-0.2620086669921875,0.596954345703125,-0.26202392578125
1718451830295903500,25.691903564453124,-0.06268310546875,0.397491455078125,0.0019378662109375
1718451830345673200,25.741673095703124,-0.1909027099609375,0.433807373046875,0.2702178955078125
1718451830395443500,25.791443359375,-0.2092437744140625,0.4643707275390625,0.413177490234375
1718451830445213400,25.84121337890625,1.172576904296875,1.173126220703125,-0.6497650146484375
1718451830494984400,25.890984375,0.559814453125,1.887359619140625,-1.7997283935546875
1718451830544754200,25.940754150390624,-0.4087371826171875,0.1850433349609375,0.772003173828125
1718451830594524400,25.9905244140625,0.6417236328125,2.4820709228515625,-0.98541259765625
1718451830644294400,26.04029443359375,-0.5354461669921875,0.6820220947265625,0.1831512451171875
1718451830694064400,26.090064453125,-0.0998077392578125,0.9499359130859375,-0.120697021484375
1718451830743834400,26.13983447265625,-0.0360107421875,0.9789886474609375,-0.3807220458984375
1718451830793604400,26.189604248046876,-0.0322418212890625,0.7202911376953125,-0.11224365234375
1718451830843374600,26.23937451171875,-0.2072601318359375,0.782470703125,-0.4000701904296875
1718451830893144300,26.289144287109377,0.363525390625,0.8254547119140625,-0.12640380859375
1718451830942914600,26.33891455078125,-0.0835723876953125,1.052764892578125,-0.3975677490234375
1718451830992684300,26.388684326171877,-0.0267333984375,1.134429931640625,-0.473419189453125
1718451831042454500,26.43845458984375,0.1389007568359375,1.2271728515625,-0.8902587890625
1718451831092224300,26.488224365234377,0.194366455078125,1.0347747802734375,-0.9309539794921875
1718451831141994800,26.537994873046873,0.225128173828125,1.500640869140625,-0.2214508056640625
1718451831191764500,26.587764404296873,-0.5156402587890625,1.884185791015625,0.297607421875
1718451831241534700,26.63753466796875,0.2115325927734375,1.1854705810546875,-0.0418853759765625
1718451831291304700,26.6873046875,-0.157623291015625,0.6180419921875,-0.2702178955078125
1718451831341074700,26.73707470703125,-0.0540618896484375,0.45489501953125,0.050262451171875
1718451831390844700,26.7868447265625,-0.1645660400390625,0.3967742919921875,0.1810455322265625
1718451831440614700,26.83661474609375,-0.2611846923828125,0.43536376953125,0.4410552978515625
1718451831490385400,26.886385498046874,0.8939208984375,1.03411865234375,-0.46478271484375
1718451831540155600,26.93615576171875,0.5406036376953125,1.568084716796875,-2.5045318603515625
1718451831589925600,26.985925537109374,-0.1855316162109375,0.510009765625,0.6534881591796875
1718451831639695600,27.035695556640626,0.3277587890625,1.9403228759765625,-0.5160980224609375
1718451831689465600,27.085465576171874,-0.624847412109375,0.7246856689453125,0.1790313720703125
1718451831739235600,27.135235595703126,-0.1328887939453125,0.9800262451171875,-0.1050567626953125
1718451831789005600,27.185005615234374,-0.0903472900390625,1.027557373046875,-0.437652587890625
1718451831838775600,27.234775634765626,-0.0601959228515625,0.7188262939453125,-0.060028076171875
1718451831888545800,27.2845458984375,-0.2050018310546875,0.7788543701171875,-0.4644622802734375
1718451831938315500,27.3343154296875,0.3102264404296875,0.8754730224609375,-0.2442626953125
1718451831988085800,27.384085693359374,-0.015106201171875,1.065093994140625,-0.3430633544921875
1718451832037854700,27.433854736328126,-0.003265380859375,1.101287841796875,-0.56903076171875
1718451832087625700,27.483625732421874,0.2333526611328125,1.212738037109375,-0.9367828369140625
1718451832137394400,27.53339453125,0.191619873046875,1.140472412109375,-0.7173309326171875
1718451832187164400,27.583164306640626,0.3605194091796875,1.5502166748046875,0.012725830078125
1718451832236934400,27.632934326171874,-0.3647613525390625,1.7574310302734375,0.1851806640625
1718451832286704600,27.68270458984375,0.0678863525390625,1.1512603759765625,-0.16400146484375
1718451832336474400,27.732474365234374,-0.3094482421875,0.717132568359375,-0.2117462158203125
1718451832386244600,27.78224462890625,-0.0694732666015625,0.38531494140625,0.0872650146484375
1718451832436014300,27.832014404296874,-0.1747894287109375,0.38214111328125,0.1846771240234375
1718451832485784600,27.88178466796875,-0.230712890625,0.4111328125,0.3831939697265625
1718451832535554300,27.93155419921875,1.467376708984375,1.127471923828125,-0.7341766357421875
1718451832585324500,27.981324462890626,0.7817535400390625,1.6297760009765625,-1.1090240478515625
1718451832635094500,28.031094482421874,0.6817779541015625,0.624542236328125,0.964874267578125
1718451832684864500,28.080864501953126,-1.3145904541015625,1.520355224609375,-0.484649658203125
1718451832734634500,28.130634521484374,-0.367828369140625,1.1543121337890625,0.3007965087890625
1718451832784404500,28.180404541015626,-0.06817626953125,1.14544677734375,-0.518218994140625
1718451832834174500,28.230174560546875,0.019500732421875,0.8419189453125,-0.312225341796875
1718451832883944400,28.2799443359375,0.10833740234375,0.69915771484375,-0.01104736328125
1718451832933714400,28.32971435546875,-0.2507476806640625,0.703369140625,-0.586334228515625
1718451832983483400,28.3794833984375,0.5899658203125,0.88299560546875,-0.3449554443359375
1718451833033253400,28.42925341796875,-0.2214508056640625,0.94775390625,-0.3257293701171875
1718451833083023400,28.4790234375,0.102020263671875,1.163848876953125,-0.222564697265625
1718451833132794000,28.528794189453127,0.15777587890625,1.2542724609375,-0.88311767578125
1718451833182564000,28.578564208984375,0.1194915771484375,1.050140380859375,-0.818634033203125
1718451833232334000,28.628333984375,0.2122650146484375,1.5103302001953125,-0.3307647705078125
1718451833282104000,28.67810400390625,-0.689544677734375,1.74932861328125,0.169189453125
1718451833331874000,28.7278740234375,0.495391845703125,1.2306976318359375,-0.2828521728515625
1718451833381644300,28.777644287109375,-0.32659912109375,0.758758544921875,-0.14642333984375
1718451833431413200,28.827413330078127,0.005584716796875,0.51483154296875,0.1543426513671875
1718451833481183000,28.877182861328127,-0.164703369140625,0.5125579833984375,0.187286376953125
1718451833530953200,28.926953125,-0.125396728515625,0.5634765625,0.319549560546875
1718451833580723000,28.976722900390627,0.4664154052734375,0.689361572265625,-0.2214508056640625
1718451833630493200,29.0264931640625,1.0664520263671875,1.641845703125,-2.679901123046875
1718451833680263200,29.07626318359375,0.1750030517578125,0.4400634765625,0.36236572265625
1718451833730033200,29.126033203125,0.6443328857421875,1.4943389892578125,0.083648681640625
1718451833779803100,29.17580322265625,-0.8162841796875,1.0074005126953125,-0.364166259765625
1718451833829572000,29.225572021484375,-0.1002197265625,0.9443511962890625,0.35711669921875
1718451833879342000,29.275342041015627,-0.0538330078125,1.1480255126953125,-0.42413330078125
1718451833929112300,29.3251123046875,0.0383148193359375,0.805328369140625,-0.12225341796875
1718451833978882000,29.374882080078127,-0.11114501953125,0.6735382080078125,-0.3441925048828125
1718451834028652300,29.42465234375,0.153228759765625,0.884307861328125,-0.4639739990234375
1718451834078422000,29.474422119140623,-0.1815338134765625,0.8428497314453125,-0.181427001953125
1718451834128190200,29.524190185546875,0.3766632080078125,1.123199462890625,-0.2999420166015625
1718451834177960400,29.57396044921875,-0.21942138671875,0.919891357421875,-0.6801300048828125
1718451834227730200,29.623730224609375,0.1347808837890625,1.30908203125,-0.8979644775390625
1718451834277500400,29.67350048828125,0.27423095703125,1.3244476318359375,-0.681671142578125
1718451834327270100,29.723270263671875,-0.599609375,1.67034912109375,0.2339935302734375
1718451834377040400,29.773040283203127,0.724273681640625,1.8143310546875,-0.26568603515625
1718451834426809300,29.822809326171875,-0.4700927734375,0.887603759765625,-0.0329742431640625
1718451834476579300,29.872579345703127,-0.066070556640625,0.466766357421875,0.0608367919921875
1718451834526349300,29.922349365234375,-0.04046630859375,0.321685791015625,0.0191192626953125
1718451834576119300,29.972119384765627,-0.3312835693359375,0.465576171875,0.166961669921875
1718451834625889300,30.02188916015625,0.3108367919921875,0.627166748046875,-0.0175933837890625
1718451834675658500,30.071658447265627,2.1434326171875,1.4351806640625,-1.452178955078125
1718451834725428200,30.12142822265625,0.4057464599609375,0.8109588623046875,-0.510711669921875
1718451834775198500,30.171198486328127,-0.496551513671875,1.0361480712890625,0.495849609375
1718451834824968400,30.220968505859375,-1.2036285400390625,1.2089691162109375,0.0440673828125
1718451834874738400,30.270738525390627,-0.4008026123046875,0.6856536865234375,0.2988739013671875
1718451834924507400,30.32050732421875,0.3616485595703125,1.291900634765625,-0.468841552734375
1718451834974277400,30.37027734375,-0.115142822265625,0.78900146484375,-0.2921905517578125
1718451835024047400,30.42004736328125,-0.3180694580078125,0.6146087646484375,-0.35491943359375
1718451835073817600,30.469817626953127,0.4370880126953125,0.9602203369140625,-0.2133331298828125
1718451835123587800,30.519587890625,-0.21484375,0.9638214111328125,-0.26873779296875
1718451835173356800,30.569356689453127,0.1782379150390625,1.1215667724609375,-0.2911529541015625
1718451835223126500,30.61912646484375,-0.0254364013671875,1.0100555419921875,-0.881378173828125
1718451835272896800,30.668896728515627,-0.0408935546875,1.2128753662109375,-0.73199462890625
1718451835322666800,30.718666748046875,-0.0213470458984375,1.3637542724609375,-0.80810546875
1718451835372436700,30.768436767578127,-0.5051116943359375,1.710968017578125,0.2899017333984375
1718451835422205700,30.818205810546875,0.565948486328125,1.706207275390625,-0.09332275390625
1718451835471975700,30.8679755859375,-0.44091796875,0.78118896484375,-0.030548095703125
1718451835521745700,30.91774560546875,0.08349609375,0.4875640869140625,-0.04852294921875
1718451835571516000,30.967515869140627,-0.142120361328125,0.434600830078125,0.122161865234375
1718451835621284600,31.01728466796875,-0.4032135009765625,0.509490966796875,0.2532806396484375
1718451835671054800,31.067054931640627,0.4002838134765625,0.7294921875,-0.018218994140625
1718451835720824800,31.116824951171875,1.4769439697265625,1.3392791748046875,-2.3375701904296875
1718451835770594800,31.1665947265625,0.221588134765625,0.6244659423828125,-0.118072509765625
1718451835820363800,31.21636376953125,-0.0210418701171875,1.5652923583984375,-0.1602935791015625
1718451835870133800,31.2661337890625,-0.8789520263671875,0.6815948486328125,0.2214813232421875
1718451835919903700,31.31590380859375,-0.1681365966796875,1.3713836669921875,-0.0181732177734375
1718451835969674000,31.365674072265627,0.222381591796875,0.916229248046875,-0.4410858154296875
1718451836019442700,31.415442626953126,-0.035003662109375,0.6929473876953125,-0.1622314453125
1718451836069212700,31.465212646484375,-0.1919708251953125,0.718353271484375,-0.351348876953125
1718451836118983000,31.51498291015625,0.3612060546875,0.918304443359375,-0.23858642578125
1718451836168751900,31.564751953125,-0.13922119140625,1.033599853515625,-0.2778778076171875
1718451836218522000,31.614522216796875,0.13201904296875,1.095947265625,-0.2743072509765625
1718451836268291800,31.664291748046875,0.01556396484375,1.2383880615234375,-0.7551422119140625
1718451836318062000,31.71406201171875,-0.052276611328125,1.0189971923828125,-0.7692413330078125
1718451836367831000,31.7638310546875,0.2031402587890625,1.1111907958984375,-0.748382568359375
1718451836417601000,31.81360107421875,-0.4286956787109375,1.6088409423828125,0.2260284423828125
1718451836467371000,31.86337109375,0.6852264404296875,2.0526580810546875,-0.09661865234375
1718451836517140000,31.913139892578126,-0.58270263671875,0.8004913330078125,-0.0145416259765625
1718451836566910000,31.962909912109374,0.1580047607421875,0.5900421142578125,0.0133514404296875
1718451836616680000,32.012679931640626,-0.08404541015625,0.554412841796875,0.0603485107421875
1718451836666450000,32.06244995117188,-0.22979736328125,0.41815185546875,0.419464111328125
1718451836716219000,32.112218994140626,0.285675048828125,0.5992889404296875,0.396942138671875
1718451836765989000,32.16198901367188,0.7607421875,1.7847747802734375,-3.1880950927734375
1718451836815758800,32.2117587890625,-0.0296478271484375,0.4915313720703125,-0.0902099609375
1718451836865528000,32.26152807617188,-0.310333251953125,1.0836029052734375,0.618011474609375
1718451836915298000,32.31129809570312,-0.95941162109375,1.189697265625,-0.07550048828125
1718451836965068000,32.361068115234374,-0.2661285400390625,0.6739501953125,0.20867919921875
1718451837014837000,32.4108369140625,0.2308349609375,1.1842803955078125,-0.4947052001953125
1718451837064607000,32.46060693359375,-0.03436279296875,0.7015380859375,-0.1728363037109375
1718451837114377000,32.510376953125,-0.331390380859375,0.6733551025390625,-0.464813232421875
1718451837164146000,32.56014599609375,0.4633636474609375,0.9527130126953125,-0.3275146484375
1718451837213916000,32.609916015625,-0.221771240234375,0.9380950927734375,-0.1998291015625
1718451837263686000,32.659685791015626,0.0314178466796875,1.134429931640625,-0.39459228515625
1718451837313454800,32.709454833984374,0.037750244140625,1.0825347900390625,-0.81280517578125
1718451837363225000,32.75922509765625,0.011474609375,1.2439117431640625,-0.7525787353515625
1718451837412994800,32.80899487304688,0.4903106689453125,1.577392578125,-0.2772979736328125
1718451837462763800,32.858763671875,-0.631256103515625,1.6394805908203125,0.31640625
1718451837512534000,32.90853393554688,0.2077789306640625,1.2937164306640625,-0.162567138671875
1718451837562303700,32.9583037109375,-0.3527984619140625,0.798736572265625,-0.0966339111328125
1718451837612073000,33.00807299804688,0.043212890625,0.4346923828125,-0.000335693359375
1718451837661843000,33.05784301757812,-0.1331634521484375,0.3911590576171875,0.09808349609375
1718451837711613000,33.107613037109374,-0.1715850830078125,0.371917724609375,0.3590545654296875
1718451837761382000,33.1573818359375,0.78057861328125,0.7037353515625,-0.4139862060546875
1718451837811152000,33.20715185546875,0.743438720703125,1.8489990234375,-2.8204345703125
1718451837860921900,33.256921875,0.066192626953125,0.7508087158203125,0.826995849609375
1718451837910690800,33.30669091796875,0.142974853515625,2.1634063720703125,-1.0068359375
1718451837960460800,33.356460693359374,-0.4965362548828125,0.7808685302734375,0.50347900390625
1718451838010230800,33.406230712890626,-0.3598175048828125,1.270599365234375,-0.4104461669921875
1718451838060000000,33.456,0.3317108154296875,0.8831329345703125,-0.4420318603515625
1718451838109769700,33.505769775390625,-0.05938720703125,0.7472686767578125,-0.19677734375
1718451838159538200,33.5555380859375,-0.2355804443359375,0.7765960693359375,-0.477203369140625
1718451838209308200,33.60530810546875,0.361541748046875,0.8655853271484375,-0.292266845703125
1718451838259078100,33.655078125,0.017608642578125,1.00396728515625,-0.1707305908203125
1718451838308847000,33.70484716796875,-0.051605224609375,1.1321258544921875,-0.368682861328125
1718451838358617300,33.754617431640625,0.125823974609375,0.9071502685546875,-0.87786865234375
1718451838408387000,33.804386962890625,0.0944671630859375,1.2690277099609375,-0.85919189453125
1718451838458156300,33.85415625,-0.029449462890625,1.3359832763671875,-0.7195892333984375
1718451838507926300,33.90392626953125,-0.224578857421875,1.9001922607421875,0.4655914306640625
1718451838557695200,33.9536953125,0.46209716796875,1.5884552001953125,0.0168609619140625
1718451838607465200,34.00346533203125,-0.460723876953125,0.80340576171875,0.0412139892578125
1718451838657235200,34.05323510742188,0.07757568359375,0.4844970703125,-0.22662353515625
1718451838707004400,34.10300439453125,-0.294952392578125,0.43280029296875,0.11419677734375
1718451838756774100,34.15277416992188,-0.2191619873046875,0.407318115234375,0.4210662841796875
1718451838806543400,34.20254345703125,0.2169952392578125,0.643951416015625,0.29827880859375
1718451838856313300,34.252313232421876,0.797149658203125,1.8225250244140625,-3.261962890625
1718451838906083300,34.30208325195313,0.2053070068359375,0.423828125,-0.151031494140625
1718451838955852300,34.351852294921876,-0.28253173828125,1.2686614990234375,0.53369140625
1718451839005622300,34.40162231445313,-0.98651123046875,1.0166473388671875,0.2026519775390625
1718451839055391200,34.45139111328125,-0.3188629150390625,0.7338104248046875,0.1999664306640625
1718451839105161200,34.5011611328125,-0.164154052734375,1.2681732177734375,-0.342529296875
1718451839154930400,34.550930419921876,0.11773681640625,0.687744140625,-0.2200775146484375
1718451839204700200,34.6007001953125,-0.303497314453125,0.7308502197265625,-0.376953125
1718451839254470400,34.65047045898437,0.397003173828125,0.8557586669921875,-0.4105072021484375
1718451839304239400,34.7002392578125,-0.2060546875,1.001800537109375,-0.210113525390625
1718451839354009000,34.75000903320313,0.0557708740234375,1.067626953125,-0.5080108642578125
1718451839403778300,34.7997783203125,0.2231903076171875,1.1322784423828125,-0.8268890380859375
1718451839453548300,34.84954833984375,0.008575439453125,1.2079925537109375,-0.6988983154296875
1718451839503317200,34.899317138671876,0.2748565673828125,1.5103607177734375,-0.707275390625
1718451839553087200,34.94908715820313,-0.6521148681640625,1.8494110107421875,0.2156524658203125
1718451839602857500,34.998857421875,0.311065673828125,1.384033203125,-0.120941162109375
1718451839652626200,35.04862622070313,-0.4527130126953125,0.7024078369140625,-0.040802001953125
1718451839702396200,35.09839624023437,0.113677978515625,0.4295501708984375,0.0149383544921875
1718451839752165400,35.14816528320313,-0.2537841796875,0.3228607177734375,0.206695556640625
1718451839801935000,35.19793505859375,-0.180694580078125,0.268463134765625,0.452301025390625
1718451839851704300,35.24770434570313,1.5786590576171875,0.9606781005859375,-0.962615966796875
1718451839901474300,35.29747436523437,1.0711212158203125,1.7315216064453125,-1.252105712890625
1718451839951244300,35.347244384765624,0.2014007568359375,0.42523193359375,0.9794921875
1718451840001013200,35.39701318359375,-0.3773040771484375,1.98828125,-1.2546539306640625
1718451840050783200,35.446783203125,-0.27886962890625,1.1273651123046875,0.344390869140625
1718451840100552400,35.49655249023437,-0.3088531494140625,0.94390869140625,-0.2359466552734375
1718451840150323200,35.5463232421875,0.06695556640625,1.0787200927734375,-0.422119140625
1718451840200092200,35.59609204101562,0.095611572265625,0.6609344482421875,-0.136566162109375
1718451840249862100,35.645862060546875,-0.353607177734375,0.729705810546875,-0.3854522705078125
1718451840299631000,35.69563110351562,0.5795440673828125,0.867279052734375,-0.423431396484375
1718451840349401300,35.7454013671875,-0.1820068359375,1.118255615234375,-0.290802001953125
1718451840399170000,35.79517016601562,-0.12408447265625,1.0945587158203125,-0.5353851318359375
1718451840448940000,35.84493994140625,0.3014984130859375,1.31134033203125,-0.8088836669921875
1718451840498710300,35.89471020507813,0.083984375,1.092681884765625,-0.7815399169921875
1718451840548479000,35.94447900390625,0.3448028564453125,1.467132568359375,-0.3460540771484375
1718451840598249200,35.99424926757813,-0.6975555419921875,1.6764678955078125,0.1916351318359375
1718451840648018200,36.04401806640625,0.3031463623046875,1.3904876708984375,-0.092498779296875
1718451840697788200,36.0937880859375,-0.4960784912109375,0.742279052734375,-0.0174560546875
1718451840747557000,36.14355712890625,0.183837890625,0.442413330078125,-0.050048828125
1718451840797327000,36.1933271484375,-0.1911163330078125,0.36383056640625,0.170074462890625
1718451840847096300,36.243096435546875,-0.198822021484375,0.3516082763671875,0.4367523193359375
1718451840896866000,36.292865966796874,1.0740814208984375,1.0067138671875,-0.744293212890625
1718451840946635300,36.34263525390625,0.910125732421875,1.876251220703125,-1.8451080322265625
1718451840996405200,36.3924052734375,-0.07061767578125,0.1357879638671875,0.7781524658203125
1718451841046174000,36.44217407226562,0.18597412109375,2.23773193359375,-0.629425048828125
1718451841095944200,36.491944091796874,-0.513885498046875,0.710968017578125,0.2432708740234375
1718451841145713200,36.54171313476562,-0.17144775390625,0.8443450927734375,-0.0365142822265625
1718451841195483000,36.59148291015625,-0.1703948974609375,1.2361907958984375,-0.4604949951171875
1718451841245252000,36.64125219726562,0.114471435546875,0.5560302734375,-0.2111053466796875
1718451841295022000,36.69102197265625,-0.2979278564453125,0.7139892578125,-0.3494873046875
1718451841344791000,36.740791015625,0.300079345703125,0.8897552490234375,-0.2817840576171875
1718451841394561000,36.79056103515625,0.181365966796875,1.0536651611328125,-0.4385528564453125
1718451841444330000,36.840330078125,-0.3628387451171875,1.1304473876953125,-0.7718963623046875
1718451841494100000,36.89009985351562,0.3038482666015625,1.1263427734375,-0.720703125
1718451841543869000,36.93986889648438,0.338470458984375,1.1003875732421875,-0.6159820556640625
1718451841593639200,36.98963916015625,0.3174591064453125,1.5815582275390625,-0.00555419921875
1718451841643408100,37.039408203125,-0.1275634765625,1.919891357421875,0.1514892578125
1718451841693177900,37.089177734375,-0.04742431640625,1.163299560546875,0.007171630859375
1718451841742947000,37.13894702148438,-0.267913818359375,0.5421295166015625,-0.1673583984375
1718451841792717000,37.18871704101562,0.0328369140625,0.3902435302734375,0.0687408447265625
1718451841842486000,37.23848608398438,-0.2380218505859375,0.33721923828125,0.1926422119140625
1718451841892256000,37.28825610351562,-0.1256866455078125,0.382965087890625,0.386138916015625
1718451841942025000,37.33802490234375,2.4728851318359375,1.5129241943359375,-1.8271636962890625
1718451841991795000,37.387794921875,0.4763641357421875,1.119232177734375,-0.379302978515625
1718451842041564000,37.43756396484375,0.21209716796875,0.495330810546875,1.3220367431640625
1718451842091334100,37.48733422851563,-0.6020965576171875,2.5729217529296875,-1.279876708984375
1718451842141102600,37.5371025390625,-0.355743408203125,0.7389678955078125,0.23553466796875
1718451842190872600,37.58687255859375,-0.178131103515625,1.1215057373046875,-0.1926727294921875
1718451842240641500,37.6366416015625,0.158447265625,0.945037841796875,-0.38299560546875
1718451842290411800,37.686411865234376,-0.10662841796875,0.551910400390625,-0.177703857421875
1718451842340180700,37.7361806640625,-0.0585479736328125,0.8262939453125,-0.4752349853515625
1718451842389950700,37.78595068359375,-0.026336669921875,0.8481903076171875,-0.2464447021484375
1718451842439719700,37.8357197265625,0.4494476318359375,1.051422119140625,-0.4652252197265625
1718451842489489700,37.88548974609375,-0.293365478515625,0.9559173583984375,-0.829620361328125
1718451842539258600,37.93525854492187,0.1994781494140625,1.20672607421875,-0.8213653564453125
1718451842589028600,37.985028564453124,0.255584716796875,1.2663116455078125,-0.641815185546875
1718451842638797600,38.03479760742187,-0.582427978515625,1.7168731689453125,0.3610076904296875
1718451842688566800,38.08456689453125,0.751708984375,2.1076812744140625,-0.184722900390625
1718451842738336500,38.13433642578125,-0.468902587890625,0.863494873046875,0.101715087890625
1718451842788105700,38.18410571289063,0.221343994140625,0.4163360595703125,-0.1600799560546875
1718451842837875700,38.23387573242187,-0.1924285888671875,0.34466552734375,0.13189697265625
1718451842887644400,38.28364453125,-0.274749755859375,0.256683349609375,0.3615570068359375
1718451842937414700,38.33341455078125,0.2863616943359375,0.653839111328125,0.170501708984375
1718451842987183600,38.38318359375,0.7629241943359375,2.1221466064453125,-4.00921630859375
1718451843036953600,38.43295361328125,-0.2462921142578125,0.503265380859375,0.4638671875
1718451843086722600,38.48272265625,1.181549072265625,1.7412567138671875,0.4579010009765625
1718451843136491800,38.53249169921875,-0.9140167236328125,0.7826690673828125,-0.091583251953125
1718451843186261800,38.58226171875,-0.1204376220703125,1.299560546875,-0.1790008544921875
1718451843236030700,38.63203076171875,0.0733795166015625,0.9152679443359375,-0.4466552734375
1718451843285800700,38.68180078125,0.1081085205078125,0.7730865478515625,-0.0662841796875
1718451843335570000,38.73156982421875,-0.3552398681640625,0.649444580078125,-0.3115386962890625
1718451843385339600,38.781339599609375,0.44134521484375,0.88446044921875,-0.374725341796875
1718451843435108600,38.83110864257812,-0.3281402587890625,1.0278472900390625,-0.2921600341796875
1718451843484877800,38.8808779296875,0.2228546142578125,1.1158905029296875,-0.4012603759765625
1718451843534647800,38.93064770507812,0.1705322265625,1.1379547119140625,-0.9532318115234375
1718451843584416800,38.98041674804688,-0.01544189453125,1.1998291015625,-0.80364990234375
1718451843634186800,39.03018676757812,0.3598785400390625,1.4982757568359375,-0.52294921875
1718451843683955700,39.07995581054688,-0.6086273193359375,1.7461700439453125,0.2044219970703125
1718451843733725700,39.1297255859375,0.13482666015625,1.36834716796875,-0.0538787841796875
1718451843783494700,39.17949462890625,-0.4107666015625,0.6804351806640625,-0.0370635986328125
1718451843833263900,39.229263916015626,0.0699005126953125,0.370269775390625,-0.051422119140625
1718451843883033900,39.27903393554688,-0.1568603515625,0.375335693359375,0.145111083984375
1718451843932802600,39.328802490234374,-0.228118896484375,0.4136199951171875,0.4602508544921875
1718451843982572800,39.37857275390625,1.4752044677734375,1.027618408203125,-0.850555419921875
1718451844032341800,39.428341796875,0.7388153076171875,1.768707275390625,-1.1491851806640625
1718451844082110700,39.47811083984375,0.245697021484375,0.7066802978515625,1.1191558837890625
1718451844131880400,39.52788037109375,-0.3585968017578125,1.6240081787109375,-0.4387664794921875
1718451844181649700,39.57764965820313,-0.4695892333984375,1.036865234375,0.294921875
1718451844231419600,39.62741967773437,-0.0373077392578125,1.1397247314453125,-0.6732635498046875
1718451844281188600,39.67718872070313,0.0084686279296875,0.8906707763671875,-0.335784912109375
1718451844330957600,39.72695751953125,0.00286865234375,0.577789306640625,-0.0302276611328125
1718451844380727600,39.7767275390625,-0.1953277587890625,0.806549072265625,-0.3943634033203125
1718451844430496800,39.826496826171876,0.3591156005859375,0.86187744140625,-0.245635986328125
1718451844480265700,39.876265625,0.04443359375,1.1052093505859375,-0.44091796875
1718451844530035700,39.92603564453125,-0.3071136474609375,1.04571533203125,-0.596343994140625
1718451844579804700,39.9758046875,0.5074462890625,1.2753448486328125,-0.7828521728515625
1718451844629574700,40.02557470703125,0.2516632080078125,1.07269287109375,-0.7281646728515625
1718451844679343600,40.07534350585937,-0.07611083984375,1.6177978515625,0.20098876953125
1718451844729112600,40.12511254882813,0.2259674072265625,2.05145263671875,-0.0420684814453125
1718451844778882800,40.1748828125,-0.198760986328125,1.040313720703125,0.0758514404296875
1718451844828651800,40.22465185546875,-0.0666351318359375,0.518646240234375,-0.11865234375
1718451844878420500,40.27442041015625,-0.0754547119140625,0.427490234375,0.05230712890625
1718451844928190700,40.32419067382813,-0.2497100830078125,0.3398895263671875,0.2872314453125
1718451844977959700,40.373959716796875,0.0470428466796875,0.4632415771484375,0.427947998046875
1718451845027729700,40.42372973632813,2.0118255615234375,1.8165283203125,-2.8081512451171875
1718451845077498600,40.47349853515625,0.0574798583984375,0.615203857421875,-0.209136962890625
1718451845127267600,40.523267578125,0.4138641357421875,0.711395263671875,1.405670166015625
1718451845177037300,40.57303735351562,-0.7888641357421875,2.4759063720703125,-1.142242431640625
1718451845226806300,40.62280615234375,-0.3571624755859375,0.5874176025390625,0.329376220703125
1718451845276575000,40.672574951171875,-0.1896209716796875,1.276611328125,-0.2666778564453125
1718451845326345200,40.72234521484375,0.38153076171875,0.8513336181640625,-0.4632110595703125
1718451845376114200,40.7721142578125,-0.2277679443359375,0.51837158203125,-0.2097625732421875
1718451845425883100,40.82188305664062,0.0535736083984375,0.9318084716796875,-0.4214324951171875
1718451845475653000,40.871653076171874,-0.0167999267578125,0.8160858154296875,-0.21002197265625
1718451845525422000,40.92142211914062,0.3035888671875,1.0960845947265625,-0.3399200439453125
1718451845575191000,40.97119091796875,-0.382110595703125,1.0047454833984375,-0.5699615478515625
1718451845624961000,41.0209609375,0.35919189453125,1.2407073974609375,-0.732513427734375
1718451845674730000,41.07072998046875,0.206512451171875,1.041046142578125,-0.91790771484375
1718451845724499200,41.120499267578126,0.19879150390625,1.6051177978515625,0.13885498046875
1718451845774269200,41.17026928710938,-0.14849853515625,1.876220703125,0.0518951416015625
1718451845824038100,41.2200380859375,-0.09405517578125,1.06585693359375,-0.0632476806640625
1718451845873807000,41.26980712890625,-0.254364013671875,0.6307525634765625,-0.0301361083984375
1718451845923576000,41.319576171875,0.0138397216796875,0.3823089599609375,0.0125274658203125
1718451845973346300,41.36934619140625,-0.202850341796875,0.3613128662109375,0.245880126953125
1718451846023115300,41.419115234375,-0.054443359375,0.44854736328125,0.4112091064453125
1718451846072884000,41.468884033203125,2.0166778564453125,1.3819580078125,-1.63201904296875
1718451846122654200,41.518654296875,0.629119873046875,1.198150634765625,-0.5621795654296875
1718451846172424200,41.56842407226563,0.3896026611328125,0.579254150390625,1.061004638671875
1718451846222193000,41.61819287109375,-0.205108642578125,2.1336517333984375,-1.50164794921875
1718451846271963100,41.66796313476563,-0.421966552734375,0.844085693359375,0.4058990478515625
1718451846321732000,41.717732177734376,-0.260955810546875,1.1202545166015625,-0.2308197021484375
1718451846371501000,41.7675009765625,0.3101348876953125,0.96270751953125,-0.49365234375
1718451846421271000,41.81727099609375,-0.05035400390625,0.621612548828125,-0.15875244140625
1718451846471040000,41.8670400390625,-0.235198974609375,0.7576446533203125,-0.425628662109375
1718451846520809000,41.91680908203125,0.47198486328125,0.867095947265625,-0.1900177001953125
1718451846570578200,41.966578125,-0.040313720703125,1.0446319580078125,-0.4078369140625
1718451846620348000,42.01634790039063,-0.1003265380859375,1.13568115234375,-0.48590087890625
1718451846670116900,42.066116943359376,0.33514404296875,1.1890411376953125,-0.801605224609375
1718451846719886000,42.115885986328124,-0.0155181884765625,1.0876312255859375,-0.7618255615234375
1718451846769656000,42.165656005859375,0.2919464111328125,1.45782470703125,-0.428802490234375
1718451846819425000,42.21542504882812,-0.583770751953125,1.711761474609375,0.2488861083984375
1718451846869194000,42.26519409179687,0.28814697265625,1.3291015625,-0.1172332763671875
1718451846918963000,42.314962890625,-0.378021240234375,0.7183380126953125,-0.152862548828125
1718451846968733200,42.36473315429687,0.0347442626953125,0.52508544921875,-0.0859222412109375
1718451847018502000,42.414501953125,-0.15966796875,0.4449615478515625,0.2044525146484375
1718451847068270800,42.46427075195312,-0.2047882080078125,0.411346435546875,0.4149169921875
1718451847118041000,42.514041015625,0.788360595703125,0.8172760009765625,-0.2492218017578125
1718451847167809300,42.56380932617188,0.5552520751953125,1.954132080078125,-2.8450927734375
1718451847217578200,42.613578125,-0.07373046875,0.384735107421875,0.6790313720703125
1718451847267347200,42.66334716796875,0.1594696044921875,2.0996856689453125,-0.8272705078125
1718451847317117200,42.7131171875,-0.506103515625,0.8844451904296875,0.374725341796875
1718451847366886100,42.76288623046875,-0.199371337890625,1.1438140869140625,-0.243621826171875
1718451847416655000,42.81265502929688,0.181365966796875,0.98480224609375,-0.4591217041015625
1718451847466424300,42.86242431640625,0.0265960693359375,0.66326904296875,-0.1999969482421875
1718451847516194000,42.91219409179688,-0.229339599609375,0.72369384765625,-0.388885498046875
1718451847565963300,42.96196337890625,0.3767852783203125,0.874725341796875,-0.3090057373046875
1718451847615732200,43.01173217773437,-0.1147003173828125,1.0381622314453125,-0.2916107177734375
1718451847665501200,43.06150122070313,-0.022125244140625,1.1176300048828125,-0.4210968017578125
1718451847715271200,43.11127124023437,0.3271026611328125,1.252105712890625,-0.8453216552734375
1718451847765040000,43.1610400390625,0.0522003173828125,1.08343505859375,-0.81768798828125
1718451847814809000,43.21080908203125,0.3864593505859375,1.463470458984375,-0.2964935302734375
1718451847864579300,43.26057934570313,-0.6031036376953125,1.7606658935546875,0.124481201171875
1718451847914348000,43.31034814453125,0.16259765625,1.320648193359375,-0.0787200927734375
1718451847964117200,43.3601171875,-0.4160614013671875,0.6399078369140625,-0.12542724609375
1718451848013886200,43.40988623046875,0.0469818115234375,0.3892059326171875,-0.0075836181640625
1718451848063655200,43.4596552734375,-0.18377685546875,0.379608154296875,0.169342041015625
1718451848113425200,43.50942504882813,-0.22021484375,0.46661376953125,0.4412994384765625
1718451848163194400,43.5591943359375,1.21197509765625,1.0604705810546875,-0.8841400146484375
1718451848212963300,43.60896337890625,0.8748016357421875,1.423492431640625,-1.582122802734375
1718451848262732300,43.65873217773437,-0.097900390625,0.4429473876953125,0.6081085205078125
1718451848312502300,43.708502197265624,0.7453460693359375,2.4112701416015625,-1.151885986328125
1718451848362271200,43.75827124023437,-0.61474609375,0.64678955078125,0.4617156982421875
1718451848412040200,43.80804028320313,-0.1891937255859375,1.1306304931640625,-0.119415283203125
1718451848461809400,43.857809326171875,0.15936279296875,1.064239501953125,-0.574951171875
1718451848511579400,43.90757934570313,-0.0074005126953125,0.555938720703125,-0.162841796875
1718451848561348000,43.95734814453125,-0.274322509765625,0.79730224609375,-0.290771484375
1718451848611117300,44.00711743164062,0.3822479248046875,0.864044189453125,-0.2716522216796875
1718451848660886300,44.05688623046875,0.07635498046875,1.10107421875,-0.4472503662109375
1718451848710655200,44.1066552734375,-0.181732177734375,1.0903472900390625,-0.557525634765625
1718451848760425200,44.15642529296875,0.3131103515625,1.1989898681640625,-0.8994903564453125
1718451848810194200,44.206194091796874,0.153228759765625,1.2169036865234375,-0.6845245361328125
1718451848859963400,44.25596337890625,0.26898193359375,1.551300048828125,0.0619049072265625
1718451848909732400,44.305732421875,-0.0096282958984375,1.9106903076171875,0.175689697265625
1718451848959502300,44.35550244140625,-0.182891845703125,1.0162811279296875,0.0144500732421875
1718451849009271300,44.40527124023438,-0.2306060791015625,0.6401214599609375,-0.1904296875
1718451849059040300,44.455040283203125,-0.023956298828125,0.416748046875,-0.0649261474609375
1718451849108809200,44.50480932617187,-0.236785888671875,0.3195037841796875,0.3166351318359375
1718451849158578400,44.55457836914063,-0.033935546875,0.4284515380859375,0.4500885009765625
1718451849208348400,44.60434838867187,1.806243896484375,1.71441650390625,-2.49713134765625
1718451849258117400,44.65411743164063,0.5833587646484375,0.795074462890625,-0.5039215087890625
1718451849307886300,44.70388623046875,0.1287841796875,0.9850311279296875,0.747772216796875
1718451849357655600,44.753655517578125,-0.5992279052734375,1.499114990234375,-0.4124298095703125
1718451849407424500,44.80342456054687,-0.341949462890625,0.87603759765625,0.384765625
1718451849457194200,44.8531943359375,-0.205078125,1.10595703125,-0.3960723876953125
1718451849506963500,44.90296337890625,0.1023406982421875,0.9087066650390625,-0.4405670166015625
1718451849556732400,44.952732421875,-0.05938720703125,0.6207427978515625,-0.22808837890625
1718451849606501400,45.00250146484375,-0.0775299072265625,0.8238677978515625,-0.3056640625
1718451849656270600,45.0522705078125,0.24810791015625,0.86199951171875,-0.3039093017578125
1718451849706039600,45.10203955078125,0.004730224609375,1.0701751708984375,-0.3126373291015625
1718451849755809300,45.15180932617187,-0.1263427734375,1.0196380615234375,-0.69580078125
1718451849805578500,45.20157861328125,0.1884765625,1.2209625244140625,-0.685699462890625
1718451849855347500,45.251347412109375,0.1780242919921875,1.279205322265625,-0.7127685546875
1718451849905116400,45.30111645507812,0.24835205078125,1.5193634033203125,0.071319580078125
1718451849954885400,45.35088549804688,0.189727783203125,1.9219207763671875,0.2266082763671875
1718451850004655400,45.4006552734375,-0.295867919921875,0.9505615234375,-0.0486297607421875
1718451850054424600,45.45042456054688,-0.20263671875,0.593414306640625,-0.1592254638671875
1718451850104193500,45.500193603515626,0.225067138671875,0.456787109375,-0.000030517578125
1718451850153962800,45.549962646484374,-0.29266357421875,0.385009765625,0.261993408203125
1718451850203731700,45.59973168945312,0.01458740234375,0.4366455078125,0.3955230712890625
1718451850253501000,45.6495009765625,2.1920928955078125,1.78753662109375,-2.667633056640625
1718451850303271000,45.69927099609375,0.1076507568359375,0.7679443359375,-0.254119873046875
1718451850353040000,45.74903979492188,0.5152587890625,0.392822265625,1.2158050537109375
1718451850402808800,45.798808837890626,-0.3262786865234375,2.6948089599609375,-1.8328857421875
1718451850452577800,45.848577880859374,-0.425506591796875,0.6061553955078125,0.330322265625
1718451850502347000,45.89834692382812,-0.243316650390625,1.217041015625,-0.1703643798828125
1718451850552116000,45.94811596679688,0.2122802734375,0.998443603515625,-0.4361419677734375
1718451850601885700,45.9978857421875,-0.0389404296875,0.5879669189453125,-0.076202392578125
1718451850651655000,46.04765502929688,-0.2989501953125,0.79986572265625,-0.3569488525390625
1718451850701423900,46.097423828125,0.4417572021484375,0.8663482666015625,-0.3608856201171875
1718451850751192800,46.14719287109375,-0.0379638671875,1.040802001953125,-0.3235015869140625
1718451850800962000,46.19696215820313,-0.1360321044921875,1.0770111083984375,-0.44317626953125
1718451850850731000,46.24673095703125,0.3632659912109375,1.1617889404296875,-0.81463623046875
1718451850900500700,46.296500732421876,0.0780029296875,1.0427093505859375,-0.8138427734375
1718451850950270000,46.34627001953125,0.3681640625,1.5171966552734375,-0.333984375
1718451851000039000,46.39603881835937,-0.5479583740234375,1.7926483154296875,0.25128173828125
1718451851049808000,46.44580786132813,0.1497039794921875,1.2141265869140625,-0.11663818359375
1718451851099576800,46.495576904296875,-0.316925048828125,0.654937744140625,-0.187408447265625
1718451851149345800,46.545345703125,0.133453369140625,0.5474090576171875,-0.04541015625
1718451851199114800,46.59511474609375,-0.203155517578125,0.3909759521484375,0.1715240478515625
1718451851248883700,46.6448837890625,-0.208038330078125,0.3697509765625,0.4033050537109375
1718451851298654000,46.69465405273438,1.59210205078125,1.1037139892578125,-0.76416015625
1718451851348422700,46.744422607421875,0.7548828125,1.68255615234375,-1.3509521484375
1718451851398191600,46.79419165039062,-0.1151123046875,0.0810394287109375,0.8828125
1718451851447960800,46.8439609375,0.2840728759765625,2.007598876953125,-0.73193359375
1718451851497729800,46.893729736328126,-0.388031005859375,0.6142120361328125,0.1863250732421875
1718451851547498800,46.943498779296874,-0.2436981201171875,0.8657379150390625,0.2095489501953125
1718451851597268000,46.99326806640625,-0.3470306396484375,1.3656463623046875,-0.455078125
1718451851647036700,47.04303662109375,0.2007904052734375,0.646820068359375,-0.2437591552734375
1718451851696806700,47.092806640625,-0.26708984375,0.777557373046875,-0.133697509765625
1718451851746576000,47.14257592773438,0.3760223388671875,0.8315582275390625,-0.379058837890625
1718451851796344800,47.1923447265625,-0.2052459716796875,0.973876953125,-0.371551513671875
1718451851846113800,47.24211376953125,0.20684814453125,1.07275390625,-0.5428619384765625
1718451851895882800,47.2918828125,-0.0288543701171875,1.180999755859375,-0.6267852783203125
1718451851945651700,47.341651611328125,0.0759735107421875,1.2110595703125,-0.829986572265625
1718451851995420700,47.39142065429687,0.1443939208984375,1.3138275146484375,-0.762603759765625
1718451852045190000,47.44118994140625,-0.394012451171875,1.733734130859375,0.121124267578125
1718451852094958800,47.490958740234376,0.4429779052734375,1.72210693359375,-0.2839508056640625
1718451852144728000,47.54072802734375,-0.4513397216796875,0.73681640625,-0.118316650390625
1718451852194497800,47.590497802734376,-0.0055084228515625,0.5,0.0261688232421875
1718451852244267000,47.64026708984375,-0.237030029296875,0.462890625,0.098724365234375
1718451852294036000,47.69003588867187,-0.2424468994140625,0.494293212890625,0.4315185546875
1718451852343805000,47.73980493164063,-0.0106658935546875,0.538848876953125,0.3896636962890625
1718451852393574000,47.789573974609375,1.8500518798828125,2.3173828125,-3.8712921142578125
1718451852443342800,47.8393427734375,-0.035858154296875,0.15460205078125,0.072998046875
1718451852493111800,47.88911181640625,0.5813140869140625,1.342864990234375,0.8310089111328125
1718451852542881000,47.93888110351563,-0.881927490234375,0.956817626953125,-0.407440185546875
1718451852592650000,47.98864990234375,-0.147857666015625,0.8759613037109375,0.1709136962890625
1718451852642419000,48.0384189453125,-0.1664886474609375,1.213470458984375,-0.3145904541015625
1718451852692188000,48.08818798828125,0.0770416259765625,0.8155517578125,-0.1743621826171875
1718451852741958000,48.1379580078125,-0.1871490478515625,0.75054931640625,-0.331878662109375
1718451852791726800,48.187726806640626,0.2966766357421875,0.831268310546875,-0.4894256591796875
1718451852841496000,48.23749609375,-0.24017333984375,0.9184722900390625,-0.2472076416015625
1718451852891265000,48.28726513671875,0.356353759765625,1.0637664794921875,-0.334136962890625
1718451852941033700,48.33703369140625,-0.060089111328125,1.041290283203125,-0.6001129150390625
1718451852990803000,48.386802978515625,0.004974365234375,1.2612457275390625,-0.9452362060546875
1718451853040572000,48.43657202148437,0.27484130859375,1.35418701171875,-0.740997314453125
1718451853090340900,48.4863408203125,-0.3154449462890625,1.552520751953125,0.20147705078125
1718451853140109000,48.53610913085937,0.53204345703125,1.95880126953125,-0.1064605712890625
1718451853189878300,48.58587817382813,-0.3561553955078125,0.8561553955078125,0.0157928466796875
1718451853239647200,48.635647216796876,-0.02783203125,0.4780426025390625,-0.1226348876953125
1718451853289416200,48.685416259765624,-0.10028076171875,0.3986358642578125,0.0666046142578125
1718451853339185200,48.73518505859375,-0.2342681884765625,0.4389190673828125,0.2982177734375
1718451853388954000,48.7849541015625,0.2249908447265625,0.6258544921875,0.34588623046875
1718451853438723000,48.83472314453125,1.610137939453125,1.71759033203125,-2.5390472412109375
1718451853488492300,48.8844921875,0.35113525390625,0.907012939453125,-0.2549591064453125
1718451853538262000,48.93426196289062,0.210540771484375,0.7416229248046875,0.897430419921875
1718451853588031200,48.98403125,0.049591064453125,2.44403076171875,-1.5051727294921875
1718451853637800200,49.03380029296875,-0.4629669189453125,0.6517791748046875,0.3894500732421875
1718451853687569200,49.083569091796875,-0.286376953125,1.0961151123046875,-0.3153228759765625
1718451853737338000,49.13333813476562,0.4192352294921875,0.9106292724609375,-0.4830169677734375
1718451853787107300,49.183107421875,-0.2813262939453125,0.6229095458984375,-0.1073760986328125
1718451853836876000,49.2328759765625,0.2486114501953125,0.9779052734375,-0.2857818603515625
1718451853886645000,49.28264501953125,-0.09423828125,0.8589019775390625,-0.2695770263671875
1718451853936414200,49.33241430664062,0.3173675537109375,1.0008392333984375,-0.314361572265625
1718451853986183200,49.38218310546875,-0.341796875,1.08538818359375,-0.5742645263671875
1718451854035952000,49.4319521484375,0.07855224609375,1.1882171630859375,-0.8873443603515625
1718451854085721300,49.48172143554687,0.3321075439453125,1.31103515625,-0.818084716796875
1718451854135490300,49.531490234375,-0.1109466552734375,1.5067596435546875,0.1324920654296875
1718451854185259300,49.58125927734375,0.2830047607421875,1.870361328125,-0.0720062255859375
1718451854235028200,49.6310283203125,-0.2282257080078125,0.9588623046875,-0.063262939453125
1718451854284797200,49.68079711914063,-0.0883331298828125,0.600189208984375,-0.08251953125
1718451854334566400,49.73056640625,-0.0399627685546875,0.412017822265625,0.08184814453125
1718451854384335400,49.78033544921875,-0.2379302978515625,0.350830078125,0.2189178466796875
1718451854434104300,49.83010424804687,0.0809783935546875,0.5530242919921875,0.3856964111328125
1718451854483873300,49.87987329101563,2.64697265625,1.8289031982421875,-2.5927886962890625
1718451854533642200,49.929642333984376,0.1171112060546875,0.7804412841796875,-0.16778564453125
1718451854583411200,49.9794111328125,1.132415771484375,1.1474761962890625,1.1181182861328125
1718451854633180200,50.02918017578125,-0.6001739501953125,1.2652587890625,-0.3638458251953125
1718451854682949400,50.07894946289063,-0.3204803466796875,1.064483642578125,0.2659912109375
1718451854732718300,50.12871826171875,-0.069915771484375,1.160858154296875,-0.5810546875
1718451854782487000,50.17848706054688,0.11810302734375,0.8100128173828125,-0.3368377685546875
1718451854832256300,50.22825634765625,-0.1416168212890625,0.586700439453125,-0.00927734375
1718451854882025200,50.278025146484374,-0.0120086669921875,0.8764190673828125,-0.3669281005859375
1718451854931794200,50.32779418945312,0.06964111328125,0.85858154296875,-0.1879730224609375
1718451854981563400,50.3775634765625,0.143463134765625,1.0242767333984375,-0.401580810546875
1718451855031332400,50.427332275390626,-0.1994171142578125,1.1392974853515625,-0.41790771484375
1718451855081101000,50.47710107421875,0.33758544921875,1.190643310546875,-0.745574951171875
1718451855130870300,50.52687036132812,0.0078582763671875,1.0343475341796875,-0.8522796630859375
1718451855180639700,50.5766396484375,0.230377197265625,1.4696502685546875,-0.462554931640625
1718451855230408700,50.62640869140625,-0.6929168701171875,1.6887054443359375,0.281951904296875
1718451855280178000,50.676177978515625,0.5010223388671875,1.41119384765625,-0.1706390380859375
1718451855329947000,50.72594677734375,-0.47430419921875,0.7733306884765625,-0.0446014404296875
1718451855379715600,50.775715576171876,0.0297698974609375,0.50933837890625,-0.0370941162109375
1718451855429484800,50.82548486328125,-0.16314697265625,0.4283447265625,0.1206512451171875
1718451855479253800,50.87525366210937,-0.1558837890625,0.460845947265625,0.430908203125
1718451855529022700,50.92502270507813,0.966552734375,0.851287841796875,-0.2841949462890625
1718451855578792000,50.9747919921875,0.3151397705078125,1.9611053466796875,-2.7888946533203125
1718451855628561000,51.024560791015624,-0.076934814453125,-0.0062408447265625,0.46221923828125
1718451855678329600,51.07432958984375,0.1297454833984375,1.0131683349609375,0.41650390625
1718451855728098800,51.12409887695313,-0.8974151611328125,1.918243408203125,-0.471649169921875
1718451855777867800,51.17386767578125,-0.297882080078125,0.3646087646484375,0.4376373291015625
1718451855827636700,51.22363671875,-0.116180419921875,1.6451873779296875,-0.3185577392578125
1718451855877405700,51.27340576171875,0.0830841064453125,0.7008056640625,-0.3225555419921875
1718451855927175000,51.3231748046875,-0.0581207275390625,0.6144561767578125,-0.2493133544921875
1718451855976943600,51.37294360351562,0.23175048828125,0.9031982421875,-0.367340087890625
1718451856026712600,51.42271264648438,-0.0150909423828125,0.9363555908203125,-0.0934600830078125
1718451856076481800,51.472481689453126,0.232025146484375,1.0908203125,-0.3968353271484375
1718451856126250800,51.522250732421874,-0.2347412109375,1.075347900390625,-0.68994140625
1718451856176019500,51.57201953125,0.21368408203125,1.102142333984375,-0.925140380859375
1718451856225788700,51.62178857421875,0.34222412109375,1.266845703125,-0.6323394775390625
1718451856275557600,51.6715576171875,-0.299163818359375,1.7049713134765625,0.27679443359375
1718451856325326300,51.72132641601563,0.4644622802734375,1.8611907958984375,-0.2860565185546875
1718451856375095600,51.77109545898438,-0.336822509765625,0.976806640625,0.0913543701171875
1718451856424864500,51.820864501953125,0.27490234375,0.521026611328125,0.029937744140625
1718451856474633500,51.87063354492187,-0.19757080078125,0.297088623046875,0.1207275390625
1718451856524402700,51.92040258789063,-0.238494873046875,0.326995849609375,0.1363372802734375
1718451856574171600,51.970171630859376,0.218597412109375,0.564208984375,0.2700653076171875
1718451856623940400,52.0199404296875,1.744049072265625,1.98333740234375,-2.7338409423828125
1718451856673709300,52.06970922851563,0.1274871826171875,0.7164459228515625,0.155059814453125
1718451856723478500,52.119478515625,0.474029541015625,1.7596435546875,-1.1793212890625
1718451856773247500,52.16924755859375,-0.4235382080078125,0.1194610595703125,0.5175933837890625
1718451856823016400,52.21901635742187,-0.2451324462890625,2.2483367919921875,-0.3781280517578125
1718451856872785700,52.26878564453125,0.178436279296875,0.5947265625,-0.54315185546875
1718451856922554400,52.318554443359375,-0.164703369140625,0.909149169921875,-0.128936767578125
1718451856972323300,52.3683232421875,0.172943115234375,0.7066650390625,-0.28179931640625
1718451857022092500,52.41809252929688,-0.0477294921875,0.7405242919921875,-0.251190185546875
1718451857071860500,52.46786059570312,0.030792236328125,0.8737335205078125,-0.2436676025390625
1718451857121629400,52.51762939453125,0.029388427734375,1.0200042724609375,-0.251220703125
1718451857171398700,52.567398681640626,-0.120361328125,0.9632110595703125,-0.633453369140625
1718451857221167600,52.617167724609374,0.130828857421875,1.0934600830078125,-0.667327880859375
1718451857270936800,52.66693676757812,0.1182403564453125,1.081634521484375,-0.691558837890625
1718451857320705500,52.71670556640625,0.4738311767578125,1.602569580078125,-0.4421234130859375
1718451857370474500,52.766474609375,-0.4516143798828125,1.8134307861328125,0.2392578125
1718451857420243700,52.81624365234375,0.0975189208984375,1.417236328125,-0.061553955078125
1718451857470012700,52.8660126953125,-0.2867431640625,0.892120361328125,-0.03790283203125
1718451857519781600,52.91578173828125,0.1205291748046875,0.4546966552734375,-0.0106964111328125
1718451857569550600,52.96555053710937,-0.1859283447265625,0.2163848876953125,0.1141815185546875
1718451857619319600,53.01531958007813,-0.1878204345703125,0.3450927734375,0.335296630859375
1718451857669088500,53.065088623046876,1.15557861328125,0.878021240234375,-0.584320068359375
1718451857718857500,53.114857421875,1.284149169921875,2.04351806640625,-2.409454345703125
1718451857768626700,53.16462670898437,-0.11383056640625,0.0340118408203125,0.690887451171875
1718451857818394600,53.21439453125,-0.6255950927734375,1.672576904296875,0.1277008056640625
1718451857868163600,53.26416357421875,-0.3795928955078125,0.7102813720703125,0.022735595703125
1718451857917932800,53.31393286132813,-0.4293670654296875,0.52325439453125,0.4822235107421875
1718451857967701800,53.36370166015625,-0.1279754638671875,1.5670166015625,-0.4949188232421875
1718451858017470700,53.413470703125,-0.135406494140625,0.6388702392578125,-0.488922119140625
1718451858067239400,53.463239501953126,-0.234619140625,0.71673583984375,-0.534393310546875
1718451858117008600,53.513008544921874,0.2660369873046875,0.8513031005859375,-0.2668609619140625
1718451858166777900,53.56277783203125,-0.198883056640625,0.8267669677734375,-0.225311279296875
1718451858216547000,53.61254711914062,-0.0600738525390625,1.032928466796875,-0.5888824462890625
1718451858266316000,53.66231591796875,0.2219696044921875,1.080902099609375,-0.7268829345703125
1718451858316084700,53.71208471679687,0.2402801513671875,1.293487548828125,-0.8086700439453125
1718451858365854000,53.76185400390625,0.206512451171875,1.388336181640625,-0.5539398193359375
1718451858415622000,53.81162182617187,-0.891876220703125,1.8480377197265625,0.3600006103515625
1718451858465390800,53.86139086914063,0.4937286376953125,1.4763031005859375,-0.2953643798828125
1718451858515159800,53.911159912109376,-0.5015716552734375,0.6787567138671875,-0.136688232421875
1718451858564929000,53.960928955078124,0.099517822265625,0.4319915771484375,0.07867431640625
1718451858614698000,54.01069799804687,-0.07586669921875,0.3365325927734375,0.152679443359375
1718451858664467000,54.06046704101563,-0.1670684814453125,0.3289337158203125,0.2686767578125
1718451858714236000,54.11023583984375,0.5688018798828125,0.868438720703125,-0.6520843505859375
1718451858764004900,54.1600048828125,1.2464447021484375,1.73785400390625,-2.6129302978515625
1718451858813772800,54.20977270507812,-0.088714599609375,0.4606475830078125,0.5675048828125
1718451858863541800,54.25954174804688,-0.0950775146484375,1.72247314453125,-0.3602752685546875
1718451858913311000,54.30931103515625,-0.6029205322265625,0.7835540771484375,0.012237548828125
1718451858963080000,54.359079833984374,-0.2717437744140625,1.20465087890625,-0.173065185546875
1718451859012849000,54.40884887695312,0.156036376953125,0.9931182861328125,-0.338287353515625
1718451859062618000,54.4586181640625,-0.051116943359375,0.737762451171875,-0.133148193359375
1718451859112386800,54.50838671875,-0.30035400390625,0.6961517333984375,-0.4986572265625
1718451859162156000,54.558156005859374,0.5427093505859375,0.8777618408203125,-0.4858245849609375
1718451859211924000,54.607924072265625,-0.1510467529296875,1.1058807373046875,-0.315093994140625
1718451859261693000,54.65769287109375,-0.1112823486328125,1.0084075927734375,-0.48748779296875
1718451859311462000,54.7074619140625,0.29595947265625,1.1622772216796875,-0.7275238037109375
1718451859361231000,54.75723120117188,-0.037872314453125,1.05047607421875,-0.735198974609375
1718451859411000000,54.807,0.253692626953125,1.4168548583984375,-0.59930419921875
1718451859460769000,54.85676904296875,-0.7765960693359375,1.8097076416015625,0.1816864013671875
1718451859510538000,54.9065380859375,0.6104278564453125,1.4434661865234375,-0.206573486328125
1718451859560306200,54.95630615234375,-0.461181640625,0.702362060546875,-0.1239013671875
1718451859610075000,55.006074951171875,0.0801239013671875,0.499847412109375,-0.0630340576171875
1718451859659843800,55.05584375,-0.1787567138671875,0.345703125,0.2095489501953125
1718451859709613000,55.10561303710937,-0.220001220703125,0.3800811767578125,0.3760833740234375
1718451859759382000,55.15538208007813,0.5637359619140625,0.8507537841796875,-0.175323486328125
1718451859809151000,55.20515087890625,0.66619873046875,1.7320098876953125,-3.3221435546875
1718451859858920200,55.25492016601562,-0.1739349365234375,0.4073638916015625,0.400146484375
1718451859908688100,55.304688232421874,0.6159820556640625,2.0644378662109375,-0.1232757568359375
1718451859958457000,55.35445703125,-0.6584014892578125,0.85516357421875,0.2996063232421875
1718451860008225800,55.404225830078126,-0.2087249755859375,1.1308135986328125,-0.0887603759765625
1718451860057995000,55.4539951171875,-0.0858612060546875,1.068206787109375,-0.3484954833984375
1718451860107764000,55.50376391601562,-0.014129638671875,0.6913299560546875,-0.28570556640625
1718451860157532400,55.553532470703125,-0.265045166015625,0.7572479248046875,-0.3719482421875
1718451860207300400,55.60330029296875,0.4453277587890625,0.875579833984375,-0.39617919921875
1718451860257069300,55.6530693359375,-0.12054443359375,0.9899444580078125,-0.3582611083984375
1718451860306838300,55.70283837890625,-0.1239471435546875,1.20098876953125,-0.546722412109375
1718451860356607500,55.752607421875,0.4099884033203125,1.14923095703125,-0.874420166015625
1718451860406376400,55.80237646484375,0.1617584228515625,1.15277099609375,-0.7178497314453125
1718451860456144400,55.852144287109375,0.295501708984375,1.3896636962890625,-0.4745330810546875
1718451860505913600,55.90191357421875,-0.4332427978515625,1.844940185546875,0.1091461181640625
1718451860555682300,55.95168237304687,0.09051513671875,1.26123046875,-0.0341033935546875
1718451860605451300,56.001451171875,-0.3559417724609375,0.5691986083984375,-0.237091064453125
1718451860655220200,56.05122021484375,0.01251220703125,0.4515228271484375,0.02630615234375
1718451860704989400,56.10098950195312,-0.20806884765625,0.38226318359375,0.2305755615234375
1718451860754757400,56.15075732421875,-0.20147705078125,0.4168243408203125,0.421356201171875
1718451860804526300,56.2005263671875,2.442718505859375,1.33905029296875,-2.0931854248046875
1718451860854295600,56.25029565429688,0.7876129150390625,1.3341827392578125,-0.2392425537109375
1718451860904064500,56.300064453125,0.3683624267578125,0.610382080078125,1.1357574462890625
1718451860953833200,56.34983325195312,0.02178955078125,2.91058349609375,-1.4554901123046875
1718451861003601400,56.39960131835937,-0.5911407470703125,0.6691741943359375,0.0749359130859375
1718451861053370400,56.44937036132813,-0.2153472900390625,1.0089874267578125,-0.1969451904296875
1718451861103139300,56.499139404296876,0.4123382568359375,0.950408935546875,-0.418121337890625
1718451861152908000,56.54890795898437,-0.219085693359375,0.554718017578125,-0.1626129150390625
1718451861202676000,56.598676025390624,0.0331268310546875,0.8213653564453125,-0.347320556640625
1718451861252445200,56.64844506835937,-0.03631591796875,0.837982177734375,-0.3986053466796875
1718451861302214100,56.69821411132813,0.3480682373046875,0.961669921875,-0.5323333740234375
1718451861351983000,56.747983154296875,-0.2993316650390625,1.0488128662109375,-0.5582733154296875
1718451861401752300,56.79775244140625,0.032806396484375,1.307464599609375,-0.8532562255859375
1718451861451520300,56.847520263671875,0.2114410400390625,1.3840484619140625,-0.822906494140625
1718451861501289200,56.89728930664062,0.16864013671875,1.5238800048828125,0.1626434326171875
1718451861551058200,56.94705810546875,0.105926513671875,1.8297271728515625,0.12310791015625
1718451861600827100,56.9968271484375,-0.1985015869140625,0.98504638671875,-0.04132080078125
1718451861650595000,57.046594970703126,-0.029998779296875,0.5907135009765625,-0.094970703125
1718451861700364000,57.096364013671874,-0.0493621826171875,0.3601531982421875,0.0448760986328125
1718451861750133200,57.14613330078125,-0.2233734130859375,0.3929443359375,0.2141876220703125
1718451861799902200,57.19590209960938,-0.07550048828125,0.541900634765625,0.3683013916015625
1718451861849671200,57.245671142578125,2.0743408203125,1.5648956298828125,-2.3002777099609375
1718451861899439000,57.29543920898438,0.4052276611328125,0.949615478515625,-0.368011474609375
1718451861949208300,57.345208251953125,-0.0898284912109375,0.184661865234375,1.0418243408203125
1718451861998977300,57.39497729492187,0.400146484375,3.5456390380859375,-2.1959686279296875
1718451862048746000,57.44474609375,-0.5491485595703125,0.324676513671875,0.36639404296875
1718451862098514200,57.49451416015625,-0.164520263671875,1.056365966796875,0.077239990234375
1718451862148284200,57.5442841796875,0.2315216064453125,1.1198577880859375,-0.2913665771484375
1718451862198053000,57.59405322265625,-0.2734375,0.465179443359375,-0.3339080810546875
1718451862247821000,57.64382104492187,0.06158447265625,0.8102264404296875,-0.518951416015625
1718451862297590000,57.69359008789063,0.09088134765625,0.82318115234375,-0.1964111328125
1718451862347359200,57.743359130859375,0.096405029296875,1.0924835205078125,-0.3665771484375
1718451862397128200,57.79312817382812,-0.186859130859375,0.99334716796875,-0.6247711181640625
1718451862446896000,57.842896240234374,0.3963623046875,1.2561798095703125,-0.7680206298828125
1718451862496665300,57.89266528320312,0.331329345703125,1.170684814453125,-0.823760986328125
1718451862546434000,57.94243408203125,-0.017547607421875,1.6246490478515625,-0.08001708984375
1718451862596203000,57.992203125,0.30987548828125,2.1524658203125,-0.0827484130859375
1718451862645971000,58.041970947265625,-0.3499908447265625,1.025054931640625,0.0304107666015625
1718451862695740200,58.091740234375,-0.19512939453125,0.533172607421875,-0.026702880859375
1718451862745509000,58.14150903320313,-0.0510101318359375,0.3265838623046875,0.00823974609375
1718451862795277000,58.19127709960937,-0.2621917724609375,0.3601837158203125,0.3063201904296875
1718451862845046000,58.2410458984375,-0.0072021484375,0.485931396484375,0.4015350341796875
1718451862894815200,58.290815185546876,2.174560546875,1.9100189208984375,-3.038543701171875
1718451862944584200,58.340584228515624,0.1906280517578125,0.443328857421875,-0.151611328125
1718451862994352000,58.39035205078125,-0.0111236572265625,0.513153076171875,0.9999847412109375
1718451863044121000,58.44012109375,-0.68353271484375,2.5974273681640625,-1.4936981201171875
1718451863093890300,58.48989038085937,-0.3139495849609375,0.6468353271484375,0.4892578125
1718451863143658200,58.539658203125,-0.1651611328125,1.3595733642578125,-0.087371826171875
1718451863193427000,58.589427001953126,0.1928253173828125,0.9017181396484375,-0.409759521484375
1718451863243195600,58.63919555664062,-0.1533203125,0.53668212890625,-0.32110595703125
1718451863292964600,58.68896459960938,-0.0139312744140625,0.7675933837890625,-0.365966796875
1718451863342732500,58.73873266601562,0.0153350830078125,0.9232940673828125,-0.17132568359375
1718451863392501800,58.78850170898438,0.3499908447265625,0.9842376708984375,-0.407745361328125
1718451863442270700,58.838270751953125,-0.3544158935546875,1.0166473388671875,-0.6484222412109375
1718451863492038700,58.88803857421875,0.3785247802734375,1.2615966796875,-0.8136749267578125
1718451863541807600,58.9378076171875,0.3128204345703125,1.2627105712890625,-0.73944091796875
1718451863591576800,58.98757690429687,0.1003875732421875,1.6311187744140625,0.170013427734375
1718451863641344800,59.0373447265625,0.0501861572265625,1.9723663330078125,0.0015869140625
1718451863691113700,59.08711376953125,-0.172210693359375,0.9740753173828125,-0.0346832275390625
1718451863740883000,59.13688305664063,-0.1307220458984375,0.5842132568359375,-0.187530517578125
1718451863790651000,59.18665087890625,-0.042388916015625,0.362640380859375,0.1116943359375
1718451863840419800,59.236419921875,-0.3127593994140625,0.3141937255859375,0.2684326171875
1718451863890188800,59.28618872070312,0.1150360107421875,0.5624847412109375,0.33709716796875
1718451863939956700,59.335956787109374,2.817169189453125,1.2695159912109375,-1.712066650390625
1718451863989726000,59.38572583007812,0.3043975830078125,0.9271087646484375,-0.3446197509765625
1718451864039494700,59.43549462890625,0.397674560546875,0.19244384765625,1.0406646728515625
1718451864089262800,59.48526293945312,-0.349334716796875,2.9268646240234375,-2.1180267333984375
1718451864139031600,59.535031494140625,-0.4127044677734375,0.6229248046875,0.4566802978515625
1718451864188801300,59.58480126953125,-0.2383880615234375,1.2470703125,-0.1063690185546875
1718451864238569200,59.6345693359375,0.279510498046875,1.0221405029296875,-0.393310546875
1718451864288338200,59.684338134765625,-0.12091064453125,0.4996337890625,-0.1817169189453125
1718451864338107400,59.734107421875,-0.1386260986328125,0.7385711669921875,-0.4705047607421875
1718451864387875300,59.783875244140624,0.1903228759765625,0.85638427734375,-0.224517822265625
1718451864437644300,59.83364428710937,0.281219482421875,1.1066131591796875,-0.3146209716796875
1718451864487412200,59.883412109375,-0.3495941162109375,0.9813079833984375,-0.752044677734375
1718451864537181400,59.93318139648437,0.54425048828125,1.334564208984375,-0.7055206298828125
1718451864586950400,59.98295043945313,0.36175537109375,1.18316650390625,-0.834747314453125
1718451864636718300,60.03271826171875,0.1688232421875,1.55914306640625,0.0190887451171875
1718451864686487300,60.0824873046875,-0.048858642578125,1.9432830810546875,0.13031005859375
1718451864736256300,60.13225634765625,-0.0815582275390625,1.004119873046875,-0.119781494140625
1718451864786024400,60.1820244140625,-0.2973480224609375,0.6234588623046875,-0.133636474609375
1718451864835793200,60.23179321289062,0.103057861328125,0.3826446533203125,0.05902099609375
1718451864885561300,60.281561279296874,-0.25274658203125,0.2606201171875,0.1779022216796875
1718451864935330000,60.331330078125,-0.1272125244140625,0.4263916015625,0.416748046875
1718451864985099300,60.38109936523438,2.4035797119140625,1.6678009033203125,-1.943267822265625
1718451865034867200,60.4308671875,0.3354034423828125,1.0344085693359375,-0.268463134765625
1718451865084636200,60.48063623046875,0.501068115234375,0.22454833984375,1.218841552734375
1718451865134405400,60.5304052734375,-0.6922760009765625,2.7978363037109375,-2.1082916259765625
1718451865184172800,60.5801728515625,-0.28619384765625,0.5014495849609375,0.4440155029296875
1718451865233941800,60.62994165039063,-0.1058197021484375,1.3887786865234375,-0.1910247802734375
1718451865283709700,60.67970971679687,0.006317138671875,0.9639434814453125,-0.53814697265625
1718451865333478700,60.72947875976563,0.06170654296875,0.502288818359375,-0.155609130859375
1718451865383248000,60.779247802734375,-0.2731170654296875,0.8458404541015625,-0.2890777587890625
1718451865433015800,60.829015869140626,0.4086456298828125,0.8515472412109375,-0.2398223876953125
1718451865482784800,60.87878466796875,0.0656890869140625,1.0626220703125,-0.5403289794921875
1718451865532552700,60.928552734375,-0.1248321533203125,1.0511016845703125,-0.552093505859375
1718451865582322000,60.978322021484374,0.40179443359375,1.278778076171875,-0.736419677734375
1718451865632091000,61.0280908203125,0.1187591552734375,1.006256103515625,-0.880584716796875
1718451865681858800,61.07785888671875,0.358306884765625,1.60345458984375,-0.10369873046875
1718451865731627800,61.12762768554688,-0.492889404296875,1.8941497802734375,0.1470947265625
1718451865781396000,61.17739599609375,0.1194915771484375,1.1077423095703125,-0.173095703125
1718451865831165000,61.2271650390625,-0.3412017822265625,0.6958770751953125,-0.2205657958984375
1718451865880934000,61.276933837890624,-0.028656005859375,0.4610137939453125,0.030731201171875
1718451865930701800,61.326701904296876,-0.228790283203125,0.3069915771484375,0.2213897705078125
1718451865980470800,61.376470703125,-0.2315673828125,0.4417877197265625,0.4489898681640625
1718451866030239000,61.426239013671875,1.9070892333984375,1.197113037109375,-0.9417724609375
1718451866080007700,61.47600756835938,0.7314453125,1.42047119140625,-0.885772705078125
1718451866129775900,61.52577587890625,-0.1812591552734375,0.02178955078125,0.710296630859375
1718451866179544600,61.57554467773438,0.3408355712890625,2.776824951171875,-1.368072509765625
1718451866229313300,61.625313232421874,-0.394256591796875,0.518951416015625,0.5117950439453125
1718451866279081500,61.67508154296875,-0.2844390869140625,0.68304443359375,0.1855926513671875
1718451866328850400,61.72485034179687,-0.2634124755859375,1.360382080078125,-0.372833251953125
1718451866378618400,61.774618408203125,-0.1146392822265625,0.550537109375,-0.269195556640625
1718451866428387300,61.82438720703125,-0.0771331787109375,0.76605224609375,-0.442108154296875
1718451866478155300,61.8741552734375,0.1494903564453125,0.8528594970703125,-0.289154052734375
1718451866527924500,61.92392456054687,0.10369873046875,1.048614501953125,-0.392547607421875
1718451866577693400,61.973693359375,-0.203765869140625,1.0220794677734375,-0.592529296875
1718451866627461400,62.02346142578125,0.3918914794921875,1.2644805908203125,-0.7713165283203125
1718451866677230300,62.073230224609375,0.261871337890625,1.0241241455078125,-0.792816162109375
1718451866726998300,62.12299829101563,0.14501953125,1.6544647216796875,-0.1392822265625
1718451866776767500,62.172767578125,0.079803466796875,2.1941375732421875,0.1075439453125
1718451866826535400,62.222535400390626,-0.208831787109375,1.15673828125,0.08642578125
1718451866876304400,62.272304443359374,-0.2023468017578125,0.5468292236328125,-0.217620849609375
1718451866926072300,62.322072265625,-0.042572021484375,0.3989410400390625,0.0526123046875
1718451866975841500,62.371841552734374,-0.28448486328125,0.2731781005859375,0.34320068359375
1718451867025610500,62.42161059570312,-0.0842437744140625,0.3504638671875,0.500732421875
1718451867075378400,62.47137841796875,2.7709197998046875,1.8421630859375,-2.6483154296875
1718451867125147400,62.5211474609375,0.37420654296875,0.8167877197265625,-0.13616943359375
1718451867174915800,62.57091577148437,1.09332275390625,0.93328857421875,1.15875244140625
1718451867224685000,62.62068505859375,-0.66650390625,1.498626708984375,-0.462890625
1718451867274453000,62.67045288085937,-0.2916412353515625,1.1805267333984375,0.175872802734375
1718451867324222000,62.72022192382813,-0.1852874755859375,0.9879608154296875,-0.4481201171875
1718451867373990000,62.76998999023437,0.1027069091796875,0.8975830078125,-0.3296661376953125
1718451867423759000,62.81975903320313,-0.0293731689453125,0.5521240234375,-0.1529998779296875
1718451867473527000,62.86952709960938,-0.099151611328125,0.7932891845703125,-0.3874969482421875
1718451867523296000,62.9192958984375,0.170013427734375,0.820587158203125,-0.3298187255859375
1718451867573064000,62.96906396484375,0.0600433349609375,1.0527801513671875,-0.3013153076171875
1718451867622833000,63.0188330078125,-0.273162841796875,1.1012725830078125,-0.51861572265625
1718451867672601900,63.06860180664062,0.51165771484375,1.2433624267578125,-0.704833984375
1718451867722369800,63.11836987304687,0.0962677001953125,1.0755767822265625,-0.9989776611328125
1718451867772138800,63.168138671875,0.2529144287109375,1.525146484375,-0.4665985107421875
1718451867821906700,63.21790673828125,-0.6882476806640625,1.9322052001953125,0.1466827392578125
1718451867871676000,63.26767602539063,0.213043212890625,1.1899566650390625,-0.0191497802734375
1718451867921443800,63.31744384765625,-0.3442535400390625,0.5998992919921875,-0.1093902587890625
1718451867971212800,63.367212890625,-0.0243682861328125,0.398040771484375,-0.01141357421875
1718451868020980700,63.41698071289063,-0.3108062744140625,0.2949676513671875,0.2801513671875
1718451868070750000,63.46675,-0.2567901611328125,0.3666534423828125,0.45123291015625
1718451868120518000,63.51651782226563,1.358612060546875,1.129486083984375,-0.7073211669921875
1718451868170285800,63.56628588867188,0.5870208740234375,1.593841552734375,-1.6697540283203125
1718451868220054000,63.61605395507812,0.0595550537109375,0.4411163330078125,0.8016815185546875
1718451868269823000,63.66582299804688,0.129791259765625,2.06903076171875,-1.047149658203125
1718451868319591200,63.71559106445312,-0.5068359375,0.8721771240234375,0.3009490966796875
1718451868369360000,63.76535986328125,-0.1920166015625,1.1566009521484375,-0.3942718505859375
1718451868419128000,63.81512817382813,0.215423583984375,0.90936279296875,-0.3765411376953125
1718451868468897000,63.86489697265625,-0.0950469970703125,0.6479034423828125,0.01202392578125
1718451868518665000,63.9146650390625,-0.0915679931640625,0.85394287109375,-0.2590789794921875
1718451868568434000,63.964433837890624,0.1522369384765625,0.8963470458984375,-0.300018310546875
1718451868618201900,64.01420190429687,0.1289215087890625,1.0488433837890625,-0.2972564697265625
1718451868667970800,64.063970703125,-0.0668792724609375,1.070343017578125,-0.6587982177734375
1718451868717739000,64.11373901367188,0.625274658203125,1.3155364990234375,-0.89849853515625
1718451868767507200,64.16350708007812,0.085601806640625,1.031585693359375,-0.803955078125
1718451868817276000,64.21327587890624,0.1416778564453125,1.7635498046875,0.2478179931640625
