time,seconds_elapsed,z,y,x
1718451804620273700,0.016273681640625,-9.52551835193634,-2.3311858165338633,-0.02147734352108091
1718451804670045700,0.066045654296875,-9.510921086785197,-2.3894020047895608,-0.05935480493076611
1718451804719817500,0.1158173828125,-9.499351060500741,-2.434536300893128,-0.07577718945010564
1718451804769588500,0.16558837890625,-9.497870466554165,-2.440420098234713,-0.07201679573697038
1718451804819360500,0.215360595703125,-9.48808732368648,-2.47747381760478,-0.09329792256620711
1718451804869132500,0.265132568359375,-9.484790035706759,-2.489018417187035,-0.11800716068060137
1718451804918904600,0.314904541015625,-9.474927397862077,-2.5250597446441647,-0.14214803345566615
1718451804968675600,0.364675537109375,-9.468338667121529,-2.54832546941936,-0.16428458980415014
1718451805018447400,0.414447265625,-9.47173240121305,-2.535640467630327,-0.1649292626495473
1718451805068218400,0.46421826171875,-9.470832237502933,-2.538099258959293,-0.17825873635457828
1718451805117990100,0.513990234375,-9.469946686840057,-2.540368080674112,-0.1924181215451099
1718451805167762200,0.56376220703125,-9.470977198931575,-2.5352184428259728,-0.20890790417827665
1718451805217533400,0.613533447265625,-9.472133383229375,-2.530223703278601,-0.21690279365601017
1718451805267305500,0.663305419921875,-9.473127654963731,-2.5262439859926697,-0.2198451672508381
1718451805317077500,0.713077392578125,-9.477202357056736,-2.510589028482139,-0.22352036689855156
1718451805366848300,0.76284814453125,-9.478600533416866,-2.504443949855864,-0.23296664249468593
1718451805416620300,0.812620361328125,-9.480471003463864,-2.49705588543117,-0.23614616757994517
1718451805466392300,0.862392333984375,-9.4818235871166,-2.491756025457382,-0.23780942461704835
1718451805516163300,0.912163330078125,-9.48279213988781,-2.4877774772152303,-0.24083922076700254
1718451805565935400,0.961935302734375,-9.484701772901415,-2.4801854146510363,-0.2439167285162024
1718451805615707400,1.011707275390625,-9.485818209710716,-2.475120240215957,-0.2518285976192914
1718451805665478100,1.06147802734375,-9.486860412240027,-2.4709227885261176,-0.2537705254673026
1718451805715250200,1.111250244140625,-9.49260041719675,-2.4491338583052156,-0.2503378841375001
1718451805765022200,1.161022216796875,-9.494887651351094,-2.4389314671121536,-0.26287828982407224
1718451805814793500,1.21079345703125,-9.498228193950652,-2.42489958075881,-0.27184845407474784
1718451805864565200,1.260565185546875,-9.500569204118847,-2.415267390669137,-0.2757856656595133
1718451805914336300,1.310336181640625,-9.499884728986025,-2.4170392226472495,-0.28372049551308154
1718451805964108300,1.3601083984375,-9.503184939575196,-2.403524784296751,-0.2879684718137607
1718451806013880300,1.40988037109375,-9.505055409622193,-2.3950651451177896,-0.29660613444074985
1718451806063651300,1.4596513671875,-9.503372571101783,-2.4016205581106242,-0.29750934862447903
1718451806113423400,1.50942333984375,-9.503726791366935,-2.3996510116033254,-0.3020604543238878
1718451806163195400,1.5591953125,-9.502935933250189,-2.4031514209397136,-0.2990936404075473
1718451806212966100,1.608966064453125,-9.502676990053057,-2.4041851479016243,-0.2990136705065146
1718451806262738200,1.65873828125,-9.505625902986527,-2.3926642214559015,-0.2976975829392671
1718451806312509200,1.70850927734375,-9.509294946888089,-2.3788280038051304,-0.29133371046315876
1718451806362281200,1.75828125,-9.5110625410825,-2.373163694433123,-0.2795932229826227
1718451806412053200,1.80805322265625,-9.513665417057275,-2.364082270094007,-0.26770373721914364
1718451806461824500,1.857824462890625,-9.51531669139564,-2.3561050076045094,-0.2791172577676363
1718451806511596300,1.90759619140625,-9.514687745842338,-2.3589307325497266,-0.2766648596468381
1718451806561368300,1.957368408203125,-9.517429153504967,-2.3481740684747696,-0.2738718679274432
1718451806611139300,2.007139404296875,-9.518451482290029,-2.3448618751868606,-0.26663276525307444
1718451806660911400,2.056911376953125,-9.51755482571125,-2.3502703101016578,-0.2505359091939404
1718451806710682400,2.106682373046875,-9.52020095630586,-2.3410925857812166,-0.23546870670979841
1718451806760454400,2.156454345703125,-9.514105562040209,-2.366584023781866,-0.22684410449378192
1718451806810226200,2.20622607421875,-9.513016597759723,-2.3722562241993845,-0.21285035819374024
1718451806859997200,2.2559970703125,-9.503746080589293,-2.411339257439971,-0.1861024903912097
1718451806909769200,2.305769287109375,-9.501620758998394,-2.421188889672607,-0.16563905488671735
1718451806959540500,2.35554052734375,-9.47674759902656,-2.5192659636735915,-0.12221120650800876
1718451807009312500,2.4053125,-9.460645774531363,-2.5819021603286263,-0.018671587076591094
1718451807059084300,2.455084228515625,-9.401599126800894,-2.788124113358557,0.08176423710361122
1718451807108855600,2.50485546875,-9.378989820107817,-2.8568770393282175,0.20781174297202376
1718451807158627600,2.554627685546875,-9.366362393724918,-2.8890830264061687,0.3079632120942697
1718451807208398600,2.604398681640625,-9.33524887805879,-2.9791204402059317,0.3851677035342902
1718451807258170600,2.654170654296875,-9.295276348632573,-3.09433467309922,0.4396759406501427
1718451807307942700,2.703942626953125,-9.23289967969656,-3.255006588831544,0.5734842167131602
1718451807357713400,2.75371337890625,-9.163062757882475,-3.4132936552539466,0.7470572612032294
1718451807407485400,2.8034853515625,-9.037683981588483,-3.7045445462718605,0.8757873206865042
1718451807457256400,2.85325634765625,-8.933896859377622,-3.960002239374816,0.8211302131518721
1718451807507028500,2.903028564453125,-8.86204392156601,-4.121549768897891,0.8046038796342909
1718451807556799700,2.9527998046875,-8.816717171630263,-4.20419911827296,0.8721175461325794
1718451807606571500,3.002571533203125,-8.876452970668673,-4.029735700814426,1.0678026153180749
1718451807656342500,3.052342529296875,-8.957085427263378,-3.7431224064692854,1.389261524529755
1718451807706114600,3.102114501953125,-9.00012611208856,-3.6542543287098406,1.3470485227003692
1718451807755886600,3.151886474609375,-8.93451645258069,-3.746051445658505,1.5204926801137626
1718451807805657600,3.20165771484375,-8.85956321066618,-4.034462144814431,1.1839075865060091
1718451807855429600,3.2514296875,-8.809967112848161,-4.264538143901527,0.6071097882654517
1718451807905200400,3.301200439453125,-8.874329402643442,-4.143754878704249,0.495938437554799
1718451807954972400,3.350972412109375,-8.90969531505704,-4.0544104156047105,0.5911549344928935
1718451808004743700,3.40074365234375,-8.844730967715382,-4.182014758993685,0.6722146400563418
1718451808054515700,3.450515625,-8.866465245139599,-4.124091854596138,0.7403043528769165
1718451808104286700,3.50028662109375,-8.906704316547513,-4.016021355977654,0.8441401365350931
1718451808154058800,3.550058837890625,-9.007765228664875,-3.7624452388375995,0.935178836331889
1718451808203829500,3.59982958984375,-9.12631620476544,-3.45258346311301,0.9800037742253392
1718451808253601500,3.6496015625,-9.154746180436014,-3.2873145749792454,1.2468249381899832
1718451808303372500,3.69937255859375,-9.13284122262001,-3.1336043149530886,1.7152609267152845
1718451808353144600,3.74914453125,-9.169385531163215,-2.7138506704017518,2.1743438343532384
1718451808402916600,3.79891650390625,-9.253043473058938,-2.3934663316190243,2.1961086530461906
1718451808452687600,3.8486875,-9.153599933010339,-2.9805931431069967,1.8703097418688237
1718451808502459600,3.898459716796875,-8.97567731500864,-3.671150226192176,1.459541660066694
1718451808552230700,3.948230712890625,-9.042619684424995,-3.60230582254678,1.193653831429407
1718451808602002700,3.998002685546875,-9.075821696802974,-3.5618344036877154,1.0550768431272357
1718451808651773700,4.047773681640625,-9.038687605673074,-3.7249712482288477,0.7727246402926743
1718451808701545700,4.097545654296875,-8.983786387184262,-3.8669855175033208,0.7130178481530398
1718451808751316500,4.14731640625,-8.988610446339845,-3.862246214021742,0.6769974904187023
1718451808801088500,4.197088623046875,-9.00413710129559,-3.849761995501816,0.5246273198898881
1718451808850859500,4.246859619140625,-8.97024944474101,-3.9357247072085735,0.4637732574112713
1718451808900630800,4.296630859375,-8.919665504929423,-4.0561607664033765,0.3968772844199091
1718451808950402800,4.34640283203125,-8.879439293003081,-4.158973198363185,0.169945428577438
1718451809000174600,4.396174560546875,-8.852758791348338,-4.2183059695586556,0.07032209324883297
1718451809049945600,4.445945556640625,-8.850500783288478,-4.222496991507708,0.0976547660688404
1718451809099717000,4.495717041015625,-8.883745465764402,-4.152668253000081,0.06924413898612838
1718451809149489200,4.5454892578125,-8.915182222035527,-4.084781880731881,0.06684581370670348
1718451809199260200,4.59526025390625,-8.968317599895595,-3.9666207807317373,0.07474688285456504
1718451809249032000,4.645031982421875,-9.000106238344312,-3.8913565731719135,0.16066583305140955
1718451809298803200,4.69480322265625,-9.09102861828506,-3.660868486152589,0.34875308578535913
1718451809348575200,4.7445751953125,-9.183374893549084,-3.4223175041869283,0.3517801419889554
1718451809398346200,4.79434619140625,-9.228220581969618,-3.3089351628959176,0.24753577752988784
1718451809448118300,4.8441181640625,-9.244417099010944,-3.272516526558995,0.042123209220659916
1718451809497889000,4.893888916015625,-9.23088366369903,-3.308914412368834,-0.11070660100942477
1718451809547660000,4.943659912109375,-9.225203279975057,-3.3190678498536346,-0.2231509673305787
1718451809597432000,4.99343212890625,-9.255244782495499,-3.2248385373219848,-0.3335378348663449
1718451809647203300,5.043203369140625,-9.316206323936582,-3.040584670472145,-0.3654188643062487
1718451809696975000,5.09297509765625,-9.362602164408564,-2.9085864760383964,-0.22844549354212357
1718451809746746000,5.14274609375,-9.36887759141624,-2.8920377845585343,-0.17503526252973825
1718451809796518100,5.19251806640625,-9.348488298860191,-2.9229163224250074,-0.48240255455747244
1718451809846289200,5.2422890625,-9.38159503417015,-2.792144747176766,-0.5999913710949942
1718451809896060200,5.29206005859375,-9.39845439903438,-2.766165087267756,-0.43332627936247736
1718451809945832200,5.341832275390625,-9.385040206187963,-2.8199446082502604,-0.3732520056173205
1718451809995603200,5.391603271484375,-9.389669619554281,-2.811376686391234,-0.3172536760741845
1718451810045375200,5.441375244140625,-9.393310021883249,-2.8077620030254122,-0.22931918937042353
1718451810095146200,5.491146240234375,-9.394330012580753,-2.8128680939927695,-0.06874332245767582
1718451810144916200,5.540916259765625,-9.377511564248799,-2.8576541611805557,0.25781634852569546
1718451810194688300,5.590688232421875,-9.31971520884037,-2.9624750103533266,0.7328238609284162
1718451810244459300,5.640459228515625,-9.268141088947653,-3.0237486864835024,1.062493914450705
1718451810294231300,5.690231201171875,-9.25173414402604,-3.243720640185475,0.2325411470916122
1718451810344002600,5.74000244140625,-9.121764532810449,-3.5491131615415212,-0.6062929554572328
1718451810393773300,5.789773193359375,-9.278527458405494,-3.1345632231131195,-0.5038175003668293
1718451810443545300,5.83954541015625,-9.339494845065474,-2.726338980574906,-1.2293467107750475
1718451810493316400,5.88931640625,-9.252746535938977,-2.652443431019783,-1.8765948134876786
1718451810543087400,5.93908740234375,-9.061419077441096,-2.609469381690025,-2.6929054975286126
1718451810592859400,5.988859375,-8.834625753286481,-2.7086571934118866,-3.283740808145702
1718451810642630400,6.03863037109375,-8.466573946660757,-2.7624069037780163,-4.105682045419514
1718451810692402400,6.08840234375,-7.983024706286192,-2.823210332047939,-4.9468350559026
1718451810742173400,6.13817333984375,-6.920388460755348,-2.8570339834555982,-6.333716699558496
1718451810791944200,6.187944091796875,-6.700974725458026,-2.5009552309572696,-6.709138742691278
1718451810841716200,6.23771630859375,-6.439090798699856,-2.218590533967316,-7.055944932192563
1718451810891487500,6.287487548828125,-6.359155676719546,-2.0471869424708187,-7.179175006020069
1718451810941259300,6.33725927734375,-6.029761809790134,-1.994827079027891,-7.4721496520906685
1718451810991030500,6.387030517578125,-5.516266343963146,-1.9693616522513329,-7.865290891787409
1718451811040801300,6.43680126953125,-5.177316128659248,-1.802818214137107,-8.131151320961118
1718451811090573300,6.4865732421875,-4.844527066333591,-1.7511423874355851,-8.34472568258047
1718451811140344600,6.536344482421875,-4.168354774692655,-1.7243695313222704,-8.707568230125307
1718451811190116600,6.58611669921875,-3.747518595601618,-1.6438814516343176,-8.912022881221771
1718451811239887600,6.6358876953125,-3.338017757256329,-1.635117861072719,-9.07493322353065
1718451811289658600,6.68565869140625,-3.241734727065265,-1.5645460491128265,-9.122157331520318
1718451811339430700,6.7354306640625,-2.9179420411437746,-1.477037715399265,-9.245234845134615
1718451811389201700,6.78520166015625,-2.737720498549938,-1.2875092691473662,-9.328323462709784
1718451811438972700,6.83497265625,-2.5651409951418636,-0.8254956418197602,-9.429155826768278
1718451811488744700,6.88474462890625,-2.0970435909211633,-0.28282405813001094,-9.575635843279958
1718451811538515500,6.934515380859375,-1.5515262624114752,0.36168997997622937,-9.676380529054999
1718451811588287500,6.98428759765625,-1.07980825654082,1.1972655921857804,-9.67320715971589
1718451811638058800,7.034058837890625,-0.906128536805883,1.9440023161977529,-9.569230067890881
1718451811687829800,7.083829833984375,-1.063693353368342,2.776279654046893,-9.345117945644258
1718451811737601500,7.1336015625,-1.5909607394382357,3.1251115041568873,-9.158214733329414
1718451811787372500,7.18337255859375,-1.9671391538962721,3.526783840833604,-8.93658507554829
1718451811837143600,7.2331435546875,-2.4472892533518373,3.7929736480921505,-8.706004049548506
1718451811886915600,7.28291552734375,-3.8603509017944333,4.046350735528767,-8.055750919800996
1718451811936686600,7.3326865234375,-4.85813619723022,4.450319366449118,-7.263853523135185
1718451811986457600,7.38245751953125,-5.905505900046229,4.843147302412986,-6.151365743720531
1718451812036229600,7.432229736328125,-6.0687295460879795,5.424128743013739,-5.46989388436675
1718451812086000600,7.482000732421875,-5.573150260701775,6.4559297052979465,-4.84059557210356
1718451812135771600,7.531771728515625,-4.707867602090538,7.288278354817629,-4.570268811170757
1718451812185543400,7.58154345703125,-3.7304046714544294,8.013989168870449,-4.246225949880481
1718451812235314700,7.631314697265625,-2.761152519802749,8.397211072099209,-4.246559711879492
1718451812285085700,7.681085693359375,-1.942359225165844,8.664560863047837,-4.162090745861828
1718451812334857700,7.730857666015625,-0.9908544001940637,8.574462658971548,-4.65480353590101
1718451812384628500,7.78062841796875,-0.2491815902418457,8.150008581644297,-5.448456544062495
1718451812434399500,7.8303994140625,0.14595421167244202,7.787505641317367,-5.958509175959229
1718451812484171500,7.880171630859375,0.6009150618111715,7.173117021155357,-6.660007339775562
1718451812533942800,7.92994287109375,1.0052476672057062,5.822563412943482,-7.826722968462109
1718451812583713500,7.979713623046875,1.3553253526583313,4.513969416321814,-8.59985896603465
1718451812633484500,8.029484619140625,1.6754419804155825,3.7587484301462766,-8.9014114708364
1718451812683256600,8.079256591796875,1.5705740772306918,3.765709793591499,-8.917571747520565
1718451812733027600,8.129027587890626,1.2937056395694613,4.519401085981726,-8.606493874004483
1718451812782798600,8.178798583984374,0.7473092632029205,5.346384409075975,-8.187068438494205
1718451812832570600,8.228570556640625,-0.04281666224438231,6.375958342960477,-7.450888252875209
1718451812882341600,8.278341552734375,-0.6951037866041064,7.437080676797032,-6.354294792684913
1718451812932112600,8.328112548828125,-1.3434379309877753,8.203481228634715,-5.202736401119828
1718451812981884700,8.377884765625,-2.2212243896022437,8.702923034667968,-3.9364553595706817
1718451813031655400,8.427655517578126,-2.8458751683205366,8.85053468555808,-3.120801824264228
1718451813081426700,8.4774267578125,-3.1178765844672918,8.838687595897913,-2.8856293788209557
1718451813131199000,8.527198974609375,-3.4194890027627345,8.721468160662054,-2.9006010302424428
1718451813180970000,8.576969970703125,-3.6749867356151342,8.45028624420464,-3.355223451340198
1718451813230740700,8.62674072265625,-3.4446877414271233,8.216336034032702,-4.098331682656705
1718451813280511700,8.67651171875,-2.809539826352894,7.74501616063416,-5.318983191931247
1718451813330283800,8.72628369140625,-1.5931756390087306,6.844764772233367,-6.8396917067527765
1718451813380055000,8.776054931640624,-0.5166765435485169,5.905924417719245,-7.811754531911015
1718451813429825800,8.82582568359375,0.12349602215415798,5.23950984224379,-8.288708027282357
1718451813479597800,8.875597900390625,0.5439890229638665,4.258892831490933,-8.816819462960957
1718451813529368800,8.925368896484375,0.2919229998595081,3.8285903203964233,-9.023694619202614
1718451813579139800,8.975139892578126,0.28090034179212525,3.7071927226930854,-9.074591278225183
1718451813628910800,9.024910888671876,0.6976707875479012,3.098712449792027,-9.278018924361467
1718451813678683000,9.074682861328125,0.6467674795888364,3.221768043835461,-9.239711697798967
1718451813728454000,9.124453857421875,1.0380685713116078,3.6624516636908053,-9.037655924537777
1718451813778225000,9.174224853515625,1.1136080886814743,3.668703417561948,-9.02612272313237
1718451813827997000,9.223996826171875,0.8210787021603435,4.2367216239541765,-8.806043801924586
1718451813877767700,9.273767578125,0.23604899081578476,4.556652373750508,-8.680530001074075
1718451813927539000,9.3235390625,-0.29334148835530505,4.728113102261722,-8.586575706091523
1718451813977310000,9.37331005859375,-0.7595239440664648,5.205428708943725,-8.276292197823524
1718451814027082000,9.42308203125,-1.2208145178165286,5.756279215174913,-7.845078124842047
1718451814076852700,9.472852783203125,-1.3372365921296179,6.132127959287166,-7.535195598590374
1718451814126623700,9.522623779296875,-0.4829362961079925,7.069180845862626,-6.779661893203854
1718451814176395800,9.572395751953126,-0.6368866485003382,8.171409097069501,-5.384502250546217
1718451814226166800,9.622166748046874,-0.3915481983516365,8.624556184917688,-4.6512481815069915
1718451814275937500,9.6719375,0.20363093188973141,8.33293879867494,-5.166339392092824
1718451814325709600,9.72170947265625,1.7210282580703495,7.828129328128695,-5.650559079074859
1718451814375480600,9.77148046875,2.155176192546636,7.449518718087673,-6.002520167121291
1718451814425251800,9.821251953125,1.8491390896767377,7.840113780432939,-5.593184748470783
1718451814475022800,9.87102294921875,1.802693418713659,8.554292562124132,-4.443511147738993
1718451814524794600,9.920794677734374,2.329742485857755,8.631814193221926,-4.029202324590087
1718451814574565600,9.970565673828125,2.544521108700335,8.924708175271748,-3.169441644270718
1718451814624336600,10.020336669921875,2.336447682584822,9.125311996158956,-2.727655031609535
1718451814674108000,10.07010791015625,2.354226061990112,8.9996590790987,-3.103893944083154
1718451814723879700,10.119879638671875,2.5118244154959917,8.7135139867872,-3.7330712603151794
1718451814773650700,10.169650634765626,2.063709768857062,8.959982902270555,-3.4103041180491447
1718451814823421700,10.219421630859374,2.0057740049779413,9.040945029211043,-3.226228822636604
1718451814873193700,10.26919384765625,1.3755676379591226,9.553037642502785,-1.7371423575252294
1718451814922964500,10.318964599609375,0.5556254290154203,9.788658416235446,-0.20942769026868044
1718451814972735700,10.36873583984375,-0.49860816822070625,9.772401693439484,0.6495661703966558
1718451815022506800,10.4185068359375,-1.2378778077550232,9.687851186618209,0.8852060872212052
1718451815072278800,10.46827880859375,-1.4999530193015933,9.627653615286945,1.1085196795012802
1718451815122049800,10.5180498046875,-1.4684477278389036,9.62535235260725,1.1690344270229338
1718451815171820800,10.56782080078125,-1.6466821882687508,9.552042201724648,1.4890662991061805
1718451815221592000,10.617592041015625,-1.7198774806000292,9.501990176832676,1.7101448988758026
1718451815271364000,10.667364013671875,-1.794590922409296,9.51701472748518,1.5415132563106715
1718451815321135000,10.717135009765625,-1.0673533371806143,9.675068277412652,1.1933989068202673
1718451815370905900,10.76690576171875,0.2860858364049345,9.792104172775149,0.4508324542302638
1718451815420676900,10.8166767578125,1.361648418200016,9.698648474964498,-0.5025325751228258
1718451815470449000,10.866448974609375,2.417087884094566,9.405751570305227,-1.3637817769668996
1718451815520220200,10.91622021484375,2.891684148815274,9.19013372015953,-1.830286066777259
1718451815569991000,10.965990966796875,3.306911255852878,8.971250730738044,-2.179768928141892
1718451815619762000,11.015761962890625,3.4997818521395323,8.849251660010218,-2.3691049205616115
1718451815669534000,11.065533935546876,3.193097245146334,8.95872442664206,-2.3907655482277272
1718451815719305000,11.115304931640624,2.920922225998342,9.095310825648903,-2.216739499273151
1718451815769076000,11.165075927734375,3.1685151770755646,8.866791992875934,-2.740601899205148
1718451815818847000,11.214846923828125,3.0845901086762546,8.862561223438382,-2.847927424675226
1718451815868618000,11.264617919921875,2.8823566407606003,8.993608693018555,-2.6414818920224903
1718451815918390000,11.31439013671875,2.3314159720279277,9.164239984968304,-2.598380709181726
1718451815968160800,11.364160888671876,1.6649083114415406,9.45578489049673,-1.9966487414970993
1718451816017932000,11.41393212890625,0.771722623643279,9.679990536245704,-1.3684405625581741
1718451816067703000,11.463703125,0.1326180707646068,9.755060098016262,-0.995800405228883
1718451816117475000,11.51347509765625,-0.4798539295205846,9.777826641097665,-0.5781424908477812
1718451816167246000,11.56324609375,-0.8848559586092829,9.763701669633388,-0.2398322722141631
1718451816217016800,11.613016845703125,-1.2604248628668486,9.72361808104813,0.1815788937532343
1718451816266788000,11.6627880859375,-1.532968423066288,9.66199661439359,0.6828072726760059
1718451816316559000,11.71255908203125,-1.6192172582380473,9.626942836669087,0.9329987888790666
1718451816366331100,11.7623310546875,-1.6304865480102597,9.633719783458114,0.838648334185779
1718451816416102000,11.812101806640625,-0.9219530056644231,9.755318456691503,0.3926450902102515
1718451816465873000,11.861872802734375,0.39325796141158786,9.783924373450875,-0.5390406433088705
1718451816515644200,11.91164404296875,1.3585032520420848,9.593449732390045,-1.5134624892160295
1718451816565415200,11.961415283203126,2.334023378047347,9.23388752169013,-2.336245291880518
1718451816615186000,12.01118603515625,2.665291514416039,9.003122955816984,-2.8302649267345665
1718451816664958000,12.0609580078125,3.128610744449496,8.756163626468181,-3.1163720251232383
1718451816714729000,12.11072900390625,3.238237824860215,8.665532338428497,-3.254647984652221
1718451816764500200,12.160500244140625,2.7509000058576465,8.895176960361002,-3.078763302218914
1718451816814271000,12.21027099609375,2.8991449862152336,8.936573385110497,-2.8112320172235368
1718451816864042000,12.2600419921875,3.107764063514769,8.65635183762908,-3.402904363186657
1718451816913813000,12.30981298828125,2.7352462173908947,8.872025217354297,-3.1584795207515355
1718451816963585000,12.3595849609375,2.6722566772535443,8.81349528697431,-3.369234733296931
1718451817013356000,12.40935595703125,2.0687160527117547,9.149817491862178,-2.858602547946572
1718451817063127000,12.459126953125,1.6548326153680681,9.466649983382224,-1.953053783790022
1718451817112897800,12.508897705078125,0.8523409786473959,9.66785586181581,-1.405870275633782
1718451817162668800,12.558668701171875,0.1923247624395415,9.760315534326434,-0.932534167042002
1718451817212439800,12.608439697265625,-0.4828080300858244,9.777596339473128,-0.5795525037761777
1718451817262211800,12.6582119140625,-0.9418469889841973,9.759304895979165,-0.19821129972748458
1718451817311982800,12.70798291015625,-1.3155385550625622,9.713933137857913,0.28150208881124855
1718451817361753600,12.757753662109375,-1.3293196815252304,9.695907067301869,0.6266406373612582
1718451817411524900,12.80752490234375,-1.4034003783889113,9.689682493698596,0.5575912491956725
1718451817461295900,12.8572958984375,-0.8756227047093212,9.767036951535939,0.09310714923446066
1718451817511066600,12.907066650390625,0.4271396631494164,9.761215698036551,-0.8406050942767411
1718451817560838700,12.956838623046876,1.3390205529369412,9.547548981958627,-1.7949110942743718
1718451817610609700,13.006609619140624,2.0978524230860174,9.164127172243594,-2.7907340035960075
1718451817660381000,13.056380859375,2.2706156124979255,8.93507525550723,-3.3435184004992244
1718451817710151700,13.106151611328125,2.5587165150523186,8.705489670285582,-3.7199227326676247
1718451817759922700,13.155922607421875,2.726549116194248,8.600413677307962,-3.8430727269962426
1718451817809693700,13.205693603515625,2.3811770511493084,8.743849503818154,-3.7477281466990706
1718451817859464700,13.255464599609375,2.5110227437242862,8.890098049661516,-3.2910929244741793
1718451817909236700,13.30523681640625,3.1269913265541196,8.397575229236484,-3.984095062623918
1718451817959007700,13.3550078125,2.70046336556226,8.54784353211522,-3.976465006136894
1718451818008778800,13.40477880859375,2.63798615886122,8.555390878754853,-4.002090738041699
1718451818058549800,13.4545498046875,2.166583429484814,8.874367981088161,-3.5667736136555668
1718451818108320800,13.50432080078125,1.723790562390536,9.320912894192338,-2.513862351064384
1718451818158091500,13.554091552734375,0.8585978470850736,9.589007366028428,-1.8665825380392371
1718451818207862500,13.603862548828126,0.0791937107621692,9.687897948369383,-1.5194554460205136
1718451818257633800,13.6536337890625,-0.5161263257872313,9.730066526535152,-1.1089538331348447
1718451818307405800,13.70340576171875,-1.1748188556432724,9.71231751935482,-0.67902760800682
1718451818357176600,13.753176513671875,-1.525271000431478,9.687014735794067,-0.07530949887312018
1718451818406947600,13.802947509765625,-1.6049306664712726,9.66485434191227,0.4303295817645266
1718451818456718600,13.852718505859375,-1.7554419843256472,9.637068509364127,0.46446734062265604
1718451818506489600,13.902489501953125,-1.5517035186745225,9.677619130939245,0.3260462735345587
1718451818556260600,13.952260498046876,-0.7014118007071316,9.776941674956678,-0.2997203392048366
1718451818606031600,14.002031494140626,0.49204033413771536,9.715382752144336,-1.2408064085528254
1718451818655802600,14.051802734375,1.3653697768107056,9.437526180228591,-2.2889463650889694
1718451818705573600,14.10157373046875,2.162169120173901,9.06018047555685,-3.067332099883258
1718451818755344600,14.1513447265625,2.368480212792009,8.812622595793009,-3.591429331484437
1718451818805115600,14.20111572265625,2.762667308279872,8.568481246474384,-3.888344824135303
1718451818854887700,14.2508876953125,2.8051968287125226,8.511099901607633,-3.982770536021888
1718451818904658400,14.300658447265626,2.417469138497114,8.75557150579393,-3.6967782961845397
1718451818954429700,14.3504296875,2.5484926426798102,8.668056303948163,-3.813185538254678
1718451819004200700,14.40020068359375,2.669634804317355,8.374662555682658,-4.348389854803681
1718451819053971500,14.449971435546875,2.189038276268542,8.701962665203213,-3.9565585286617275
1718451819103742700,14.49974267578125,2.195661055409163,8.767489907124638,-3.805337455102801
1718451819153514000,14.549513916015625,1.529606983809173,9.115670307588577,-3.276473739752173
1718451819203285000,14.599284912109376,0.9968422424320131,9.412970415642857,-2.563727036690712
1718451819253055700,14.6490556640625,0.23967706338614225,9.576296353015303,-2.0994031596593556
1718451819302827000,14.698826904296874,-0.3050761123506352,9.661524905228614,-1.652955861710757
1718451819352598000,14.748597900390624,-0.9330782107908279,9.690939215761423,-1.17704025801979
1718451819402368800,14.79836865234375,-1.3296909990556538,9.695862643638252,-0.6265360810082405
1718451819452139800,14.848139892578125,-1.6124145924858748,9.673161567008496,-0.021913545264548154
1718451819501911000,14.8979111328125,-1.6545850703477858,9.663895141491293,0.2045978954920545
1718451819551682000,14.94768212890625,-1.4466341015681623,9.698602297735214,0.12144880730076692
1718451819601452800,14.997452880859376,-0.5935647721135988,9.770274033761025,-0.5998640549208969
1718451819651223800,15.047223876953124,0.6529045941043645,9.649573770672083,-1.6216778031326828
1718451819700995000,15.0969951171875,1.478435014976561,9.338124725756048,-2.604620188093185
1718451819750765800,15.146765869140625,2.162588368499279,8.969947246924042,-3.3216885537460445
1718451819800536800,15.196536865234375,2.329311108703166,8.737819576004147,-3.7941017753392456
1718451819850307800,15.246307861328125,2.66608149574995,8.531234927141666,-4.034900828492641
1718451819900078800,15.296078857421875,2.6301462590157985,8.500414256942271,-4.122579111945629
1718451819949851000,15.345850830078126,2.2237970165692267,8.751873820319771,-3.8248943884879347
1718451819999622000,15.395621826171874,2.237728219027072,8.574286717882751,-4.20054351837486
1718451820049393000,15.445392822265624,2.483275781881809,8.26708422449529,-4.653930552458763
1718451820099163600,15.49516357421875,1.948565678590536,8.577831258621812,-4.335237820024788
1718451820148935000,15.544934814453125,1.9712877980083225,8.643122938221692,-4.192948533201218
1718451820198704600,15.59470458984375,1.2880927681237457,9.141510266765952,-3.308172069568932
1718451820248476000,15.644475830078125,0.8940342674516141,9.474671377274394,-2.3667845147900284
1718451820298247000,15.694246826171875,0.07693234170144424,9.639028411260247,-1.8037801910370588
1718451820348017700,15.744017578125,-0.46177232938501983,9.691690910911559,-1.4241864151775836
1718451820397788700,15.79378857421875,-1.0706482870727776,9.6913372751683,-1.04980007176809
1718451820447560000,15.843559814453124,-1.434488321222365,9.688062783542275,-0.5040437468707561
1718451820497330700,15.89333056640625,-1.7279881602108478,9.65288041100204,0.07971158802327699
1718451820547101700,15.943101806640625,-1.6903220080308614,9.654569679263233,0.3201060698306188
1718451820596872700,15.992872802734375,-1.5981195251516997,9.673744919854402,0.18727029206156728
1718451820646644000,16.04264404296875,-0.8219696596506982,9.756660518950223,-0.5498481973208487
1718451820696414700,16.092414794921876,0.376648223926872,9.67030033235848,-1.585494436856359
1718451820746185700,16.142185791015624,1.2391102721594274,9.378374903079866,-2.584778300286829
1718451820795956700,16.191956787109376,2.024716021335125,8.987088351339102,-3.3620155956983564
1718451820845727700,16.241727783203125,2.4227796659953893,8.73205151399672,-3.748575703439116
1718451820895498800,16.291498779296877,2.9126006801158186,8.473817341917753,-3.985170875161886
1718451820945269800,16.341269775390625,2.912156443479657,8.402719606387615,-4.133279369658231
1718451820995040800,16.391040771484374,2.33119224627465,8.672925955811142,-3.9390713872879743
1718451821044811800,16.440811767578126,2.58645587811023,8.584035373958944,-3.9742900001853703
1718451821094582800,16.490582763671874,2.717435250890255,8.30464735469222,-4.4518265561416746
1718451821144354000,16.54035400390625,2.6280492867365477,8.436963236773014,-4.252225190295278
1718451821194124300,16.590124267578126,2.36371796682626,8.611103413626552,-4.05365667462796
1718451821243895000,16.63989501953125,1.7689738122023642,9.115669138544797,-3.153682057341933
1718451821293666000,16.689666015625,1.103571628639847,9.399438149374722,-2.5696479511722923
1718451821343437300,16.739437255859375,0.38866255991272625,9.563182604420184,-2.1365559554897247
1718451821393208000,16.7892080078125,-0.24362329852757975,9.677042207834123,-1.5703104578584433
1718451821442979000,16.83897900390625,-0.9615500528417527,9.69985901979804,-1.076365787936747
1718451821492750000,16.88875,-1.349100194533169,9.699797060477733,-0.514076955509372
1718451821542521300,16.938521240234376,-1.4914577242873608,9.69254840452373,-0.021093349172174928
1718451821592292000,16.9882919921875,-1.523716610596329,9.686667529791594,0.1309584030572325
1718451821642062000,17.03806201171875,-1.2428116108953953,9.727578801372646,-0.005097904235968599
1718451821691833000,17.0878330078125,-0.4122048366069793,9.764642165353894,-0.8076075184296816
1718451821741604000,17.13760400390625,0.7983374396506696,9.602681086593865,-1.822519378298521
1718451821791375000,17.187375,1.5542722001187503,9.253537394055723,-2.8507313761800526
1718451821841146000,17.23714599609375,2.1697624979123473,8.860980091726779,-3.5979923432618377
1718451821890917000,17.286917236328126,2.4775217483997345,8.621412041673064,-3.9627679046958684
1718451821940687000,17.33668701171875,2.8931492529317735,8.416830549326539,-4.117891246390342
1718451821990458400,17.386458251953126,2.8758509121283886,8.408935412162542,-4.146046496772766
1718451822040229000,17.43622900390625,2.4345459455043077,8.701329627996683,-3.811853412868082
1718451822090000100,17.486000244140627,2.4580916562646626,8.668968742617965,-3.870030584287643
1718451822139770600,17.5357705078125,2.5924811297491193,8.392311025097966,-4.361026633536816
1718451822189542000,17.5855419921875,2.282144722250104,8.605713537281751,-4.111438709250092
1718451822239311600,17.6353115234375,2.153735930610448,8.61076965162754,-4.169708819650113
1718451822289083000,17.685082763671875,1.4686438349328934,9.095516577354074,-3.35932328787446
1718451822338854000,17.73485400390625,0.9803998608708381,9.427184818956256,-2.517417997719347
1718451822388624600,17.784624755859376,0.1862694627222605,9.593230536681412,-2.0262363627701996
1718451822438395600,17.834395751953124,-0.3995300639510154,9.668267365226148,-1.592276790472865
1718451822488166000,17.884165771484376,-1.0803768502090125,9.681066056522726,-1.1314230007048696
1718451822537936600,17.9339365234375,-1.482948400747776,9.676893739274144,-0.5735678398760036
1718451822587707600,17.983707763671877,-1.7557089646987616,9.648174425268172,0.02437042091435287
1718451822637479000,18.03347900390625,-1.7317136104747652,9.648257427376508,0.2876097580365836
1718451822687249700,18.083249755859374,-1.5907504576884208,9.674860187619924,0.192339138024766
1718451822737020000,18.13302001953125,-0.8299274867873638,9.760160051503776,-0.46996809346340596
1718451822786791000,18.182791015625,0.4418759714450687,9.678211251613497,-1.518993965988606
1718451822836561700,18.232561767578126,1.3801459056600927,9.389826271420716,-2.4691613318115473
1718451822886332700,18.282332763671874,2.235048478423804,8.971207476118206,-3.2699192035421727
1718451822936103000,18.33210302734375,2.455843585076928,8.731243704745173,-3.7288860835850235
1718451822985873700,18.381873779296875,2.835235700884461,8.460778412124514,-4.0678061960116025
1718451823035644700,18.431644775390627,2.8140242782905696,8.392581074211002,-4.22092813475579
1718451823085416000,18.481416015625,2.514841425229609,8.627527309682964,-3.925776144646108
1718451823135185400,18.531185302734375,2.649832956260443,8.473241003334522,-4.165685263222456
1718451823184956700,18.580956787109375,3.0505764876544474,8.251986608606577,-4.332328654579818
1718451823234727700,18.630727783203124,2.7140944160297513,8.517697400176525,-4.03148897422254
1718451823284497400,18.680497314453124,2.5996400615930555,8.462050916278361,-4.219709698876739
1718451823334268700,18.7302685546875,1.974174897751957,8.901956245237589,-3.6094554020404814
1718451823384039700,18.780039794921876,1.5574220424517988,9.308795170897245,-2.662924200762808
1718451823433810400,18.829810546875,0.623450024626404,9.53467430281639,-2.207187242551893
1718451823483580700,18.87958056640625,0.05319419537521899,9.63255073967874,-1.838898412299901
1718451823533351700,18.9293515625,-0.6297753551904112,9.690846861302852,-1.3642767208769917
1718451823583122400,18.979122314453125,-1.040948656792566,9.716490421125291,-0.8225764664374291
1718451823632892700,19.028892578125,-1.4010085148163138,9.703069798538088,-0.24085918584279714
1718451823682663400,19.078663330078125,-1.3963658035770057,9.705892454743385,0.12719645670782773
1718451823732434400,19.128434326171874,-1.4459787063993512,9.696513216501474,0.23908795665288343
1718451823782204700,19.17820458984375,-1.0177875614356249,9.753635033649205,-0.03304672135156579
1718451823831975400,19.227975341796874,0.05906506930314935,9.764671391448378,-0.9044825231645256
1718451823881746400,19.277746337890626,1.0176322247434406,9.560153611987829,-1.9334591487430035
1718451823931516700,19.3275166015625,1.7442659257948399,9.196353617587684,-2.9248920064121484
1718451823981287400,19.377287353515626,2.2233580406300724,8.8604177816689,-3.566523438286781
1718451824031058400,19.427058349609375,2.1940232250742615,8.63637463300526,-4.095080571906268
1718451824080828700,19.47682861328125,2.5786791066288948,8.385521803349256,-4.382214967516064
1718451824130599700,19.526599609375,2.629243757218122,8.459907474508881,-4.20564434864521
1718451824180370700,19.57637060546875,2.5645976820454,8.697895561894773,-3.7336107740193603
1718451824230140700,19.626140625,2.6427538116544484,8.50123726376295,-4.112808244037628
1718451824279911400,19.675911376953124,2.5456325770735737,8.348335689771174,-4.471626066111028
1718451824329681700,19.725681640625,2.1114111389696597,8.452676354211569,-4.501620222358405
1718451824379452700,19.77545263671875,2.074125656670332,8.650635213547945,-4.127333320735395
1718451824429223400,19.825223388671876,1.4934835310265422,9.175581463193893,-3.1222745271652936
1718451824478993700,19.87499365234375,0.8043770851410925,9.459117249789834,-2.4593612378090617
1718451824528764700,19.9247646484375,0.10039511428554541,9.598968203550577,-2.005029031829536
1718451824578534700,19.97453466796875,-0.5281888848289847,9.661579265764354,-1.5953930227972566
1718451824628305700,20.0243056640625,-1.1226748999733478,9.67898808120489,-1.107782159006968
1718451824678076700,20.07407666015625,-1.4673767376065254,9.682952308660745,-0.5075717748664319
1718451824727846700,20.1238466796875,-1.5988586530812083,9.675382750189303,-0.03164671151066432
1718451824777617700,20.17361767578125,-1.7236461854837835,9.653943071797489,0.028426173995004498
1718451824827387600,20.2233876953125,-1.4668627967350185,9.695519529289006,-0.124848870668374
1718451824877158700,20.27315869140625,-0.4867087638514116,9.750388014551996,-0.9292104294467717
1718451824926928600,20.3229287109375,0.6874502761762589,9.57833458084464,-1.988294170127809
1718451824976699600,20.37269970703125,1.4989970337510108,9.206329068157077,-3.027688071759045
1718451825026470700,20.422470703125,2.216541638613492,8.80444747264385,-3.706617845414579
1718451825076240600,20.47224072265625,2.4581740738511084,8.588824361801146,-4.044729564067721
1718451825126011600,20.52201171875,2.827949051007628,8.386542378568649,-4.2236251187548035
1718451825175781400,20.571781494140627,2.696819163841009,8.367623743087053,-4.345158617797494
1718451825225552600,20.621552734375,2.389586421445757,8.577471777659655,-4.109408372466266
1718451825275322400,20.671322265625,2.262324023362249,8.451466978421807,-4.430012491479515
1718451825325093600,20.72109375,2.4953143024608493,8.302492222484945,-4.583931133559346
1718451825374863600,20.770863525390624,1.9772015520967543,8.624210147958994,-4.228954789344966
1718451825424634400,20.82063427734375,2.0463006611555814,8.62358178692758,-4.1972473994389174
1718451825474404600,20.870404541015624,1.3801090807810426,8.99970116467476,-3.6429482140585776
1718451825524175400,20.92017529296875,0.9566829582620412,9.341960942918062,-2.8254040426999327
1718451825573945600,20.969945556640624,0.12721653138147665,9.521290505108237,-2.3450392775803803
1718451825623716600,21.019716552734376,-0.4194308058051392,9.603862405332922,-1.9391477157734334
1718451825673486600,21.069486572265625,-1.038786071931198,9.64066156542003,-1.4659313611038027
1718451825723257600,21.119257568359377,-1.4356069499887525,9.664443423023819,-0.8413984366115183
1718451825773027300,21.16902734375,-1.6146593026727436,9.669069913780689,-0.26896679769121107
1718451825822798600,21.218798583984373,-1.7246005635991692,9.653542674303054,-0.07248595218525733
1718451825872568600,21.268568603515625,-1.5891731253691017,9.67701239721775,0.018812716005265247
1718451825922339300,21.31833935546875,-0.869585031980276,9.753374921408295,-0.5346676158564165
1718451825972109600,21.368109619140625,0.3862911180736497,9.664494860950112,-1.6182324849843979
1718451826021880600,21.417880615234374,1.2269672682926058,9.358148107609152,-2.6627073431417343
1718451826071650600,21.467650634765626,2.053615514213592,8.92358530872166,-3.510361406081915
1718451826121421600,21.517421630859374,2.2369139800347386,8.670702434542775,-3.9981875931233164
1718451826171191600,21.567191650390626,2.5722861907213925,8.407591596338152,-4.343520787462592
1718451826220962600,21.616962646484374,2.645813199225068,8.338305294144153,-4.43200951051563
1718451826270732500,21.666732666015626,2.2081161939650773,8.588526840159297,-4.187099514912068
1718451826320503600,21.716503662109375,2.2300039083853362,8.613594645920395,-4.123528083233535
1718451826370273500,21.7662734375,2.3634328662745654,8.291860353833437,-4.672219657865166
1718451826420043500,21.81604345703125,1.8886409328512845,8.54441238862276,-4.426788853257894
1718451826469814500,21.865814453125,2.006996240249276,8.635471546685695,-4.19177802811712
1718451826519584800,21.915584716796875,1.3988544055223464,9.077360158416628,-3.437314582310617
1718451826569355500,21.96535546875,0.7983215844944119,9.392011798766255,-2.7061414111986757
1718451826619125500,22.01512548828125,0.00092205531069485,9.544678979480267,-2.2515517233267426
1718451826668896500,22.064896484375,-0.561484786035493,9.616029228466749,-1.840410424298048
1718451826718666500,22.11466650390625,-1.1403740035973489,9.641417936745285,-1.3831087009884415
1718451826768436500,22.1644365234375,-1.5563552900031208,9.652609192845224,-0.7584882443431764
1718451826818207500,22.21420751953125,-1.7256345828220248,9.65151964404285,-0.20184956489829345
1718451826867977700,22.263977783203124,-1.8068791799657045,9.638673021951318,-0.03960073240518104
1718451826917748500,22.31374853515625,-1.5362085740312934,9.683106622439622,-0.21885036579351871
1718451826967518500,22.3635185546875,-0.6261267695549875,9.723931969302892,-1.1061239434711634
1718451827017288400,22.413288330078124,0.5342938871731981,9.55897346229255,-2.123895065228641
1718451827067059500,22.4630595703125,1.307174046821147,9.18933234064877,-3.165097477586567
1718451827116829200,22.5128291015625,1.9559180871799586,8.815894164809585,-3.8242353400573132
1718451827166599200,22.56259912109375,2.3312797784276307,8.569079212367534,-4.160098695261776
1718451827216370400,22.612370361328125,2.7080419841229912,8.372956920808553,-4.327873428736627
1718451827266140200,22.66214013671875,2.5536136389553548,8.354821544659137,-4.4549274447664615
1718451827315910400,22.711910400390625,2.0797795907787977,8.643640824615956,-4.13912838794738
1718451827365681200,22.76168115234375,2.50467483600229,8.326046116551757,-4.535850116479397
1718451827415451400,22.811451416015625,2.4727017808973786,8.146313818779587,-4.867616265498102
1718451827465222400,22.861222412109374,2.1401525186769663,8.503640817773341,-4.390696380135417
1718451827514992000,22.9109921875,1.9158872516952454,8.645929227814078,-4.21279685074836
1718451827564762400,22.960762451171874,1.4139482220187782,9.083079705107211,-3.415961413158476
1718451827614533000,23.010533203125,0.634031186003983,9.36337431782484,-2.84528100181967
1718451827664303400,23.060303466796874,-0.023658884244668298,9.490569788151978,-2.4695982619240877
1718451827714073000,23.110072998046874,-0.6107951987799257,9.592392916813493,-1.9450716989949344
1718451827763843300,23.15984326171875,-1.1528558840297163,9.644909285992384,-1.3479741131126879
1718451827813614300,23.2096142578125,-1.517660671558231,9.663886373662947,-0.690233988610655
1718451827863384300,23.25938427734375,-1.6983024853907525,9.656223291689157,-0.2085926824829541
1718451827913154300,23.309154296875,-1.657280739172548,9.665595515668391,-0.008463021300247056
1718451827962925300,23.35892529296875,-1.2519900658681988,9.72302186872065,-0.2563948643552139
1718451828012695300,23.4086953125,-0.24995644707186146,9.726915369027852,-1.2227181594807655
1718451828062465300,23.45846533203125,0.771483846451342,9.509816340413689,-2.2668520221807062
1718451828112236300,23.508236328125,1.5679105571098624,9.112423873013258,-3.2673794559314846
1718451828162007000,23.558007080078124,2.025791103220731,8.787861079502106,-3.8522771931931374
1718451828211777000,23.607777099609375,2.346302137123048,8.518605747193098,-4.254247928294539
1718451828261547000,23.657547119140624,2.621351834924519,8.352776302567124,-4.4192835921943185
1718451828311318000,23.707318115234376,2.262159042058885,8.424113692072034,-4.4818864711016415
1718451828361088000,23.757087890625,1.9458857918567953,8.724182680317758,-4.0339235078930855
1718451828410858000,23.80685791015625,2.385460135295987,8.193079077085851,-4.8325393991589545
1718451828460628000,23.8566279296875,2.180561978215724,8.126124432709812,-5.0380193016499275
1718451828510399000,23.90639892578125,2.161329600609839,8.367996668052673,-4.634184526242316
1718451828560169000,23.9561689453125,1.8183073135614394,8.74922768972516,-4.0392020328179
1718451828609939200,24.005939208984376,1.289112758821249,9.24520854164958,-3.0057755151584744
1718451828659709000,24.055708984375,0.49252822725251316,9.454084516319632,-2.558919051887095
1718451828709480000,24.10547998046875,-0.07048366788555868,9.597881577357649,-2.011487121927738
1718451828759250000,24.15525,-0.7061579723209143,9.652275430846213,-1.5828060745552182
1718451828809020200,24.205020263671877,-1.2219097657073288,9.654687168163061,-1.210095190077275
1718451828858790000,24.254789794921876,-1.673668394871801,9.645822893705963,-0.5721307562775909
1718451828908561000,24.304560791015625,-1.6994433259889483,9.658051091638207,-0.06570629284933675
1718451828958331100,24.3543310546875,-1.7319518031448125,9.652484689682721,-0.016471181822329525
1718451829008100900,24.404100830078125,-1.261827277010679,9.721447166749835,-0.2676087889446877
1718451829057871000,24.45387109375,-0.06041143784422893,9.744614107325672,-1.0996562818270177
1718451829107641000,24.50364111328125,0.9351240374047308,9.555383328846096,-1.9976444745361803
1718451829157411800,24.553411865234374,1.8348622886516153,9.127801474887132,-3.080080814558267
1718451829207181800,24.603181884765625,2.2624811136201024,8.779036552533507,-3.738995681928098
1718451829256951800,24.652951904296874,2.372130259732157,8.531180566605926,-4.214541356328129
1718451829306722000,24.70272216796875,2.7497788928732274,8.340785420522094,-4.363532186616957
1718451829356491800,24.75249169921875,2.6249410915881395,8.39334796693027,-4.33956035939902
1718451829406262800,24.8022626953125,2.3443111094363034,8.64523598485291,-3.9918008146956563
1718451829456033000,24.852032958984374,2.600002757425606,8.308335687816143,-4.514638693885505
1718451829505802800,24.901802734375,2.5153254093542694,8.214743211883306,-4.728798161916434
1718451829555573000,24.951572998046874,2.010645994928479,8.74467660229206,-3.957058002616465
1718451829605343000,25.001343017578126,2.2788260992214084,8.690840382686257,-3.9302208490952846
1718451829655113000,25.051113037109374,1.2457985177516937,9.16699191402495,-3.2534079214632508
1718451829704883700,25.1008837890625,0.7472364171624183,9.441506189775467,-2.5436148075103757
1718451829754654000,25.150654052734374,-0.02776214114530012,9.594329437834023,-2.029400087498128
1718451829804424000,25.200423828125,-0.6153077808335423,9.667806761977076,-1.5248992445096372
1718451829854194000,25.25019384765625,-1.1217223484888672,9.686723059371113,-1.0390037332698703
1718451829903964000,25.2999638671875,-1.3871413175053893,9.69863035478592,-0.4275358593927696
1718451829953734000,25.34973388671875,-1.5193927560478449,9.688232294890284,0.0009054637225006445
1718451830003503900,25.39950390625,-1.5730799225717782,9.679227735179662,0.09140252814050763
1718451830053275000,25.44927490234375,-0.9906835006065666,9.752558344328403,-0.2766856832391582
1718451830103044900,25.499044921875,0.1429978460848797,9.726181209534406,-1.2455322680309413
1718451830152814300,25.548814453125,1.152475287214294,9.478731466320156,-2.2351342570111155
1718451830202584300,25.598584228515627,1.9465807883836328,9.058615125936269,-3.2128990932032466
1718451830252354300,25.648354248046875,2.4009306761503217,8.765105057814717,-3.684951664790511
1718451830302124500,25.69812451171875,2.766926427029073,8.493910866397618,-4.045741079197824
1718451830351894300,25.747894287109375,3.0178166660860177,8.344753739631175,-4.174717003200948
1718451830401664500,25.79766455078125,2.6124305695831773,8.453207684609293,-4.229524405926465
1718451830451434500,25.8474345703125,2.0566215641617775,8.788530941587686,-3.8343753335386515
1718451830501204500,25.89720458984375,2.448929421774298,8.397958091074228,-4.432542009957134
1718451830550975200,25.946975341796875,2.277867775583267,8.314131222352385,-4.6751364220947025
1718451830600745500,25.996745361328124,2.0700072615660727,8.721432504826783,-3.977696301497519
1718451830650515200,26.04651513671875,1.9108866669289766,8.854127741613983,-3.7581025334581732
1718451830700285400,26.096285400390624,1.2399066832341252,9.24039441936612,-3.041073038510978
1718451830750055400,26.146055419921876,0.7309183926332742,9.455290384978055,-2.4967238769978284
1718451830799825400,26.195825439453124,0.09391820075586438,9.593923779642582,-2.0293349133074283
1718451830849595400,26.245595458984376,-0.4914188777711242,9.66531962133646,-1.5844583718068896
1718451830899365400,26.295365478515624,-0.9923342634882777,9.69170727752447,-1.1209177541077135
1718451830949135400,26.34513525390625,-1.3921801884554326,9.69721113563776,-0.44309090019278224
1718451830998905300,26.3949052734375,-1.4729339333422482,9.69540379395485,0.000010820282962578175
1718451831048675300,26.44467529296875,-1.4031085558354854,9.705415484881401,0.0810197571455501
1718451831098445300,26.4944453125,-0.9980648430295288,9.751429632559418,-0.2896234907454811
1718451831148215600,26.544215576171876,0.05226845883242786,9.7313957293123,-1.2114494542304426
1718451831197985500,26.593985595703124,1.0343379334159195,9.494013791126012,-2.228058765666932
1718451831247755500,26.643755615234376,1.7383311289183794,9.08212985703647,-3.2655069400578736
1718451831297525800,26.69352587890625,2.0819781237363815,8.774474943706393,-3.852835703858733
1718451831347295500,26.74329541015625,2.5318454592615365,8.521057816520333,-4.141461799331009
1718451831397066500,26.79306640625,2.9210701100364327,8.389332301548123,-4.154138617813587
1718451831446836700,26.842836669921876,2.60048937189877,8.45084504713118,-4.241584261554479
1718451831496606500,26.8926064453125,2.047563082306832,8.750296780261397,-3.925579745291173
1718451831546376700,26.942376708984376,2.2459781609781087,8.440766720709204,-4.458636820678413
1718451831596146700,26.992146728515625,2.2180203328639267,8.275981816700101,-4.770625671559572
1718451831645916700,27.041916748046877,2.0143898576319215,8.624040636610983,-4.211716654296219
1718451831695686700,27.091686767578125,1.8004981006264686,8.767945249676703,-4.00646208499372
1718451831745456600,27.14145654296875,1.1146131740707903,9.197371854719519,-3.215022953489423
1718451831795226600,27.1912265625,0.5892384698797017,9.427685754215716,-2.6347519992455837
1718451831844996600,27.24099658203125,-0.10262579594706185,9.576323825544119,-2.110414090756327
1718451831894766600,27.2907666015625,-0.7041437098890543,9.649494275695085,-1.600573348044604
1718451831944536600,27.34053662109375,-1.1632561358824371,9.668034725514053,-1.1603144564073533
1718451831994306600,27.390306640625,-1.52880122038424,9.670754505866766,-0.5564665194820613
1718451832044075800,27.44007568359375,-1.5881816301137208,9.677009474608301,-0.05959319396363571
1718451832093845500,27.489845458984377,-1.5835780818410217,9.677900285968184,0.02993574059102684
1718451832143615500,27.539615478515625,-1.1715657721314578,9.728013685658574,-0.40443646762780844
1718451832193385500,27.589385498046877,-0.06078580584826413,9.710266432043909,-1.370191059487313
1718451832243155500,27.639155517578125,0.9017809360556304,9.489915708157419,-2.30188344194293
1718451832292925400,27.688925537109377,1.6928009653650222,9.085965489676594,-3.2787256103321907
1718451832342695400,27.7386953125,2.0873850973464547,8.765293273863195,-3.8707720503047107
1718451832392465400,27.78846533203125,2.430267975924164,8.518176708126068,-4.2077135561347
1718451832442235400,27.8382353515625,2.7457085746943948,8.383437982812524,-4.283627752035856
1718451832492005400,27.88800537109375,2.402891893220693,8.45263777576685,-4.353095548276603
1718451832541775400,27.937775390625,2.081430426725745,8.727139776557683,-3.9591795248150823
1718451832591545300,27.98754541015625,2.5966844266578555,8.239824461647867,-4.640356785136461
1718451832641315600,28.037315673828125,2.6416215927541256,8.125885947778821,-4.81271329344362
1718451832691085300,28.087085205078125,2.6893396217405794,8.238733743801712,-4.58923917683959
1718451832740855600,28.13685546875,2.0151782315306366,8.72487007806003,-3.9982580280110236
1718451832790625300,28.186625244140625,1.5138282537885008,9.172012957057357,-3.1229592945590614
1718451832840395500,28.2363955078125,0.9844774125080555,9.40807738290429,-2.586362062346935
1718451832890165200,28.286165283203125,0.10184617161038331,9.564285012704133,-2.1643637076087296
1718451832939935500,28.335935546875,-0.45047092744149264,9.656763389915227,-1.647543481273204
1718451832989704400,28.385704345703125,-0.9928917512405663,9.676539519008994,-1.244636926626414
1718451833039474400,28.435474365234374,-1.2720607939943671,9.697159113189578,-0.719273912873119
1718451833089244400,28.485244384765625,-1.3752157557815312,9.705130238199233,-0.29934505788534876
1718451833139015200,28.53501513671875,-1.4273624148651958,9.701083008635043,-0.14836319990977645
1718451833188785200,28.58478515625,-1.0288093061875552,9.742446115636826,-0.44346755148544903
1718451833238555100,28.63455517578125,0.04012782045262866,9.71483563965559,-1.3381902395926415
1718451833288325000,28.6843251953125,1.0321426883939653,9.445908808648586,-2.4248420053526756
1718451833338095000,28.73409521484375,1.5971154626756905,9.01961699450016,-3.5023028950497506
1718451833387865000,28.783864990234374,2.00780448789224,8.634768951374292,-4.192835428215563
1718451833437634300,28.83363427734375,2.478250354935229,8.3330147865206,-4.537567441791296
1718451833487404000,28.883404052734374,2.9049563028424976,8.162726024398207,-4.593641795712709
1718451833537174300,28.93317431640625,2.7026664285644886,8.188934232366085,-4.669831593684852
1718451833586944000,28.982944091796874,2.2531066976837812,8.510937989044189,-4.319467711701989
1718451833636714200,29.03271435546875,2.3528104961037632,8.499050567373633,-4.289614132969081
1718451833686484200,29.082484130859374,2.45662275275588,8.301183477973938,-4.607145712669193
1718451833736254200,29.132254150390626,2.3044183672480285,8.588561911472677,-4.1348087711825965
1718451833786024200,29.182024169921874,2.0362536066547037,8.6170912558645,-4.215426322469115
1718451833835793000,29.23179296875,1.3069079432308672,9.016811289429665,-3.627600422801077
1718451833885563100,29.281563232421874,0.9207136000625789,9.333101929157971,-2.8663378183737396
1718451833935333400,29.33133349609375,0.09695000619981438,9.509223050695658,-2.3949283669956025
1718451833985103000,29.38110302734375,-0.4324377695575356,9.620276364517212,-1.8530140314139425
1718451834034873300,29.430873291015626,-1.0431162100899964,9.65168447921574,-1.3882653530992566
1718451834084643000,29.48064306640625,-1.3968876354940234,9.66451941086948,-0.9034099254969506
1718451834134411300,29.530411376953126,-1.7294094251856207,9.649099723419546,-0.2727754875254817
1718451834184181500,29.580181396484374,-1.644482194006443,9.66748410589397,0.07630734167089685
1718451834233951200,29.629951171875,-1.469753403609991,9.695876672163605,0.014375108017155434
1718451834283721500,29.679721435546874,-0.6263605783108621,9.767753575372696,-0.6074918463855982
1718451834333491200,29.7294912109375,0.6586343699280173,9.650452307072282,-1.6141029839642345
1718451834383261400,29.779261474609374,1.4347409808091818,9.33193171633482,-2.65084534817338
1718451834433030400,29.829030517578126,2.3399171122610567,8.900649254292249,-3.3872730788126586
1718451834482800400,29.87880029296875,2.5399542391762138,8.64816560856402,-3.8637130717039105
1718451834532570400,29.9285703125,2.8141590105861423,8.393485329574347,-4.21904422070533
1718451834582340400,29.97834033203125,2.784405969618261,8.274961826002597,-4.4656975528448815
1718451834632110300,30.0281103515625,2.5435613237574697,8.534513510420918,-4.10642701856792
1718451834681879300,30.07787939453125,2.23174081518054,8.700068229758738,-3.936817470881343
1718451834731649300,30.127649169921874,2.440693654479086,8.410473873776198,-4.413315039178729
1718451834781419300,30.177419189453126,2.130308439402282,8.585060625353455,-4.234256695145368
1718451834831189500,30.227189453125,2.1403937800869346,8.67147809509039,-4.049017032128572
1718451834880959200,30.276959228515626,1.5022398150645195,9.134559132453798,-3.2362779229640957
1718451834930728400,30.326728515625,0.8900391334008425,9.447954050740599,-2.472722239163518
1718451834980498400,30.37649853515625,0.26451531644137577,9.613386020481586,-1.9191817631959913
1718451835030268400,30.426268310546874,-0.3273639685370028,9.693567226177453,-1.4484310679875314
1718451835080038400,30.476038330078126,-0.8559823308244348,9.708833184370398,-1.0845503365013747
1718451835129808600,30.52580859375,-1.2529032351903617,9.711839964970945,-0.529884400167875
1718451835179577900,30.575577880859374,-1.470037919639796,9.695772042745352,0.03706154191691894
1718451835229347600,30.62534765625,-1.5080825497433543,9.686722474849223,0.2519599506476894
1718451835279117800,30.675117919921874,-1.2808125479876995,9.720531805470586,0.20286973825888707
1718451835328887800,30.7248876953125,-0.4618088620031252,9.783792271503806,-0.4842599824598059
1718451835378656800,30.77465673828125,0.7015729826182127,9.657752985474467,-1.5511295181788503
1718451835428426800,30.8244267578125,1.4313476851090787,9.32791955808401,-2.6667446358338
1718451835478196700,30.87419677734375,2.016655902867764,8.94592982699871,-3.4747403498634695
1718451835527966700,30.923966796875,2.3326770780049264,8.67779560767412,-3.927450507599115
1718451835577737000,30.973737060546874,2.7836329394191504,8.433353229582309,-4.159365704812109
1718451835627505700,31.023505615234374,2.6232249353200197,8.370085749286412,-4.385286630046368
1718451835677275600,31.073275634765626,2.334088844498992,8.576987793534993,-4.142185437430441
1718451835727046000,31.1230458984375,2.446420507693291,8.484921504256128,-4.265153060929477
1718451835776815600,31.172815673828126,2.478880177271366,8.245595446264744,-4.694217262400686
1718451835826584800,31.222584716796874,2.4428705601267513,8.406504970145225,-4.419668792119622
1718451835876354800,31.272354736328126,2.2242728173874315,8.577503926363587,-4.201124533133209
1718451835926124800,31.322124755859374,1.6623333463869987,9.103523358199,-3.2454438107162713
1718451835975893800,31.371893798828125,1.0134811694785952,9.415030855304002,-2.549595927746594
1718451836025663700,31.421663818359374,0.31305458041653034,9.569379705494642,-2.121174846484512
1718451836075433700,31.471433837890626,-0.35351737757772206,9.64950304352343,-1.712452152904868
1718451836125204000,31.521203857421874,-0.9354373411376029,9.680328389897943,-1.2595968876101076
1718451836174973000,31.570972900390625,-1.2776798029199241,9.700171739009022,-0.6667754446770996
1718451836224743000,31.620742919921874,-1.3913213796690105,9.7062940212816,-0.14988507571481166
1718451836274513000,31.670512939453126,-1.4400015316858887,9.70021440910697,0.05102650508047081
1718451836324283100,31.720283203125,-1.2160608935486525,9.730640527030825,0.0789471247231122
1718451836374052000,31.770052001953125,-0.5050793004635721,9.785867324212193,-0.38998069330658763
1718451836423821800,31.81982177734375,0.6160818339459597,9.681443657663465,-1.43543480829224
1718451836473592000,31.869592041015625,1.3292251351095736,9.37411783015728,-2.555285371559858
1718451836523361000,31.919361083984374,1.9288477094247936,8.990879560315609,-3.4079318359598516
1718451836573131000,31.969131103515625,2.000318077659607,8.731631242758034,-3.9909591031745073
1718451836622901000,32.01890087890625,2.43949304651767,8.489182084310054,-4.260639675158262
1718451836672671000,32.0686708984375,2.5631144577503204,8.391024492418765,-4.380814453068376
1718451836722440000,32.11843994140625,2.1326389281764624,8.634666660043596,-4.13095063444972
1718451836772210200,32.168210205078125,2.2875515497297045,8.590284497481584,-4.140590861715376
1718451836821980000,32.21797998046875,2.3278895514674485,8.217513261118532,-4.819107086133957
1718451836871748900,32.26774877929687,1.9458952903375029,8.553232823938131,-4.384757637736201
1718451836921519000,32.31751904296875,1.9486171165168285,8.631136732351779,-4.2280929118186235
1718451836971288800,32.36728881835938,1.2456896505497395,9.07965031518042,-3.4897853587821124
1718451837021058000,32.41705810546875,0.6265753170400857,9.388242217099666,-2.763817647358775
1718451837070828000,32.466828125,-0.021533016947784926,9.549851998203993,-2.2294033121436834
1718451837120598000,32.51659790039062,-0.6431568148110062,9.639427639710902,-1.684686924753338
1718451837170366700,32.56636669921875,-1.1594217453513294,9.648563716846704,-1.315809188697487
1718451837220137000,32.61613696289062,-1.5328230232462285,9.656717797207833,-0.7540813876863569
1718451837269907000,32.66590698242187,-1.672997363742441,9.660501991921663,-0.21486962559428066
1718451837319676000,32.71567602539063,-1.7117654858149587,9.656047350600362,-0.031426518004899845
1718451837369446000,32.76544580078125,-1.4774144397571682,9.689570265495776,-0.31600557570923116
1718451837419216000,32.8152158203125,-0.4892832905145362,9.718041742220521,-1.2209271113455296
1718451837468984800,32.86498486328125,0.6258460529174655,9.5668656768471,-2.0624758431479333
1718451837518755000,32.914755126953125,1.4778955012723802,9.230096312713622,-2.9650580125838517
1718451837568524800,32.96452490234375,2.01619763770625,8.873595243149996,-3.6557650255337357
1718451837618294000,33.0142939453125,2.224878089804202,8.640615923836826,-4.069402233031392
1718451837668064000,33.06406396484375,2.4677333448350427,8.44025234144628,-4.340833740335703
1718451837717834000,33.113833984375,2.282984972466528,8.387288813021778,-4.540019511118531
1718451837767603000,33.16360302734375,1.9221053955577312,8.61975959829092,-4.263291358710825
1718451837817372700,33.21337255859375,2.20218461195901,8.333241581013798,-4.677376894497871
1718451837867143000,33.26314282226563,2.166601695793867,8.179529275161027,-4.956965404772758
1718451837916911900,33.312911865234376,2.2144509499445557,8.362266599968075,-4.619423887223005
1718451837966681900,33.36268188476563,1.7028673090882598,8.679684782421589,-4.234823681378364
1718451838016450800,33.412450927734376,1.2684401192791759,9.19067498742938,-3.1769357994183895
1718451838066221000,33.46222094726563,0.4078804340692237,9.42553354461789,-2.676443315288424
1718451838115990800,33.51199072265625,-0.06479544334842358,9.5453061714679,-2.2479555985309183
1718451838165759200,33.56175927734375,-0.5679527034079656,9.626699675562977,-1.7817027992635965
1718451838215529200,33.611529296875,-1.1503255618344992,9.652928926318884,-1.2915448082737624
1718451838265299200,33.66129931640625,-1.5443997715324163,9.658337507364154,-0.708326037074998
1718451838315068200,33.711068115234376,-1.6902010119996964,9.65940776694417,-0.09707763290116563
1718451838364838400,33.76083837890625,-1.6691883268482983,9.660622403430938,0.2378687718551606
1718451838414608100,33.81060815429687,-1.474625101299584,9.693039402911067,0.20212730412743984
1718451838464377000,33.86037719726563,-0.7821040246650576,9.7591499976784,-0.5636538371702656
1718451838514147300,33.91014721679687,0.3489366256587207,9.641158993548155,-1.75974041217193
1718451838563916300,33.95991625976563,1.1613283826902507,9.34703751552999,-2.7303102222934363
1718451838613686300,34.00968627929687,1.82791583051458,8.943300063017011,-3.584204056406021
1718451838663456300,34.059456298828124,2.2414231280222534,8.69924463841617,-3.933135859759152
1718451838713225500,34.1092255859375,2.654824480937421,8.443829615411161,-4.221849633514881
1718451838762995200,34.1589951171875,2.561676533901691,8.389500059330462,-4.384574097862839
1718451838812764200,34.20876416015625,1.9192125967256723,8.663126446330546,-4.175792523477972
1718451838862534400,34.258534423828124,1.9932956316769121,8.676168883255123,-4.113545033879578
1718451838912304000,34.30830419921875,1.9474818288765847,8.301337791752815,-4.8441199468374245
1718451838962073300,34.3580732421875,1.6808622518986462,8.609008487173915,-4.385210642200708
1718451839011843300,34.40784326171875,1.8366545788958668,8.666531870859862,-4.205749562585353
1718451839061612300,34.4576123046875,1.1687475729055703,9.124957191371918,-3.3969951391428705
1718451839111382300,34.50738232421875,0.5918666629588231,9.407964570179582,-2.703751593452692
1718451839161151200,34.55715112304687,-0.18441187042314558,9.556209258276224,-2.194366923945397
1718451839210921200,34.60692114257812,-0.7481753054477274,9.626197571259736,-1.7166580801621079
1718451839260691200,34.656691162109375,-1.289488460265845,9.638250997146963,-1.2695397510841488
1718451839310460400,34.70646044921875,-1.6508868003517387,9.64191068869829,-0.6917687238972634
1718451839360230100,34.756230224609375,-1.7968132746338843,9.640372227084637,-0.07122429821898695
1718451839409999400,34.80599926757812,-1.9164387480981646,9.617124037966132,0.0925769422147423
1718451839459769300,34.855769287109375,-1.4897227171882985,9.692205874696374,-0.11074842172400094
1718451839509538000,34.9055380859375,-0.38802470040060577,9.740436529380082,-1.0694584197010844
1718451839559308300,34.955308349609375,0.7125893205426633,9.526015195542573,-2.2175749271839855
1718451839609078300,35.00507836914063,1.5418747830994426,9.082259036374092,-3.362378583791852
1718451839658847200,35.05484716796875,2.073803731239587,8.716818873551487,-3.985822909329831
1718451839708617200,35.1046171875,2.3417161245070397,8.478778763717413,-4.335556968976557
1718451839758386400,35.154386474609375,2.6640225173935295,8.293922547060252,-4.5037996122241015
1718451839808156200,35.20415625,2.3583958950206636,8.354950723996758,-4.561049731926619
1718451839857925000,35.25392504882812,2.1805732302621004,8.613975169670582,-4.1490851338163015
1718451839907695400,35.3036953125,2.4992747305244207,8.104992212831974,-4.922713591080904
1718451839957465000,35.353465087890626,2.38279676130563,8.05371152292788,-5.062650469559431
1718451840007234300,35.403234375,2.279384756017476,8.289743800070882,-4.71751425909698
1718451840057004300,35.45300439453125,1.8939410850860177,8.617105284389853,-4.281220690894127
1718451840106773500,35.5027734375,1.4971113661348818,9.104111387220025,-3.3232889746800063
1718451840156544300,35.55254418945312,0.6619783465936779,9.384460944995283,-2.768405559670925
1718451840206313200,35.60231323242188,-0.06404341483814642,9.528536822974681,-2.318032174319774
1718451840256083200,35.65208325195312,-0.6648553633347153,9.617418052476644,-1.7982231414318084
1718451840305852200,35.70185205078125,-1.2818508049942552,9.6425846424371,-1.2441085188381373
1718451840355622100,35.7516220703125,-1.5586774493403732,9.659693013626336,-0.6566787058155983
1718451840405391000,35.80139111328125,-1.6505723275750874,9.666316231158374,-0.09126810637218877
1718451840455161000,35.8511611328125,-1.760483485624194,9.646917118683456,0.08996443076194263
1718451840504931300,35.900931396484374,-1.4186962933287024,9.70317910413146,-0.07745303197414614
1718451840554700000,35.95069995117188,-0.42699393453579393,9.749871297201514,-0.9633672583315521
1718451840604470000,36.00046997070312,0.6295186039503663,9.570416647326946,-2.0448031160742044
1718451840654239200,36.0502392578125,1.4155093338556586,9.167189482423662,-3.1826646984592077
1718451840704009000,36.10000903320312,1.9048989708214996,8.808546724656225,-3.8666856577739117
1718451840753778200,36.14977807617188,2.1230764423221347,8.57406635313034,-4.260086132928729
1718451840803548200,36.19954809570312,2.5032623388558624,8.381179974752664,-4.433948661884665
1718451840853317000,36.24931713867188,2.263757417166233,8.409408290371298,-4.508618410682678
1718451840903087000,36.29908715820312,2.0295582006692885,8.669252235734461,-4.110391246023774
1718451840952856000,36.34885595703125,2.3603661721803246,8.242125724327563,-4.7609264075830575
1718451841002626300,36.39862622070312,2.2726329436697066,8.118151554134487,-5.010106627851724
1718451841052395000,36.44839501953125,2.002015236966312,8.558406427183748,-4.349255823983252
1718451841102165200,36.49816528320312,1.9424939574614166,8.659238791242242,-4.173094078174233
1718451841151934200,36.54793432617188,1.2971962581641971,9.116090578827261,-3.374102339333296
1718451841201704000,36.59770385742188,0.5633760066095739,9.417747713047266,-2.6756384286463257
1718451841251473000,36.647472900390625,-0.22286575718102974,9.549149402892589,-2.221364236464351
1718451841301243100,36.6972431640625,-0.8596384421791881,9.616094110396503,-1.7210886099554596
1718451841351012000,36.74701220703125,-1.336672382375598,9.64676280490458,-1.1505150199919938
1718451841400782000,36.79678198242188,-1.7415217416532336,9.640956748974324,-0.43527938619162887
1718451841450551000,36.846551025390625,-1.7022405554920435,9.657594580042362,0.060226555397151965
1718451841500321000,36.896321044921876,-1.7451760263770817,9.649516487526894,0.10762732142824678
1718451841550090000,36.946090087890624,-1.328056968113035,9.713270290035009,-0.24293453081212937
1718451841599860000,36.99585986328125,-0.18379171096449717,9.724489603185653,-1.2533679300926626
1718451841649629200,37.045629150390624,0.7345378252394497,9.484978836277127,-2.3803357780195773
1718451841699399000,37.09539892578125,1.5214349293999374,9.024180356892943,-3.524176580944657
1718451841749168000,37.145168212890624,1.888586718446016,8.735042512506245,-4.037654511114955
1718451841798938000,37.194938232421876,2.282836942297965,8.50694570453763,-4.3117198740541935
1718451841848707000,37.24470703125,2.5974659324243663,8.355919861289859,-4.42743182733655
1718451841898477000,37.29447705078125,2.1951368854045867,8.463611005201935,-4.440613088209926
1718451841948246000,37.34424609375,2.0459419108457864,8.676915902230142,-4.086029250444471
1718451841998016000,37.39401611328125,2.5932655581250783,8.10012899070978,-4.881930914315581
1718451842047785000,37.44378491210937,2.1859952553108335,8.246630050009488,-4.835793140257895
1718451842097555200,37.49355517578125,2.087319923155755,8.526390409719944,-4.371970929138362
1718451842147323600,37.54332373046875,1.6234633713752031,8.828505809101461,-3.9487013854205606
1718451842197093600,37.59309375,1.1753007208760826,9.195391494557262,-3.199037448850274
1718451842246862600,37.64286254882813,0.2750076670243405,9.450922252896428,-2.602847040940821
1718451842296632600,37.69263256835937,-0.31244897920619696,9.571312719383835,-2.112514131775498
1718451842346401800,37.74240185546875,-0.9985737423997372,9.624926820671558,-1.591859880235046
1718451842396171500,37.79217163085937,-1.4007016408242285,9.653527476733922,-1.0088809091415256
1718451842445940700,37.84194067382813,-1.758886864082515,9.642251464959978,-0.3220153009854257
1718451842495710700,37.89171069335937,-1.7311875407740474,9.65259808692932,0.02683076944616623
1718451842545479400,37.9414794921875,-1.6169965134486555,9.672374216023087,-0.02984181751316646
1718451842595248600,37.99124853515625,-0.8710679640144109,9.745860892516374,-0.65560077438578
1718451842645018600,38.0410185546875,0.3705119496615603,9.646483403441309,-1.7258226527400313
1718451842694787800,38.090787841796875,1.174950080807507,9.277681655231119,-2.952035449403524
1718451842744557600,38.1405576171875,1.838283933663368,8.810957292929292,-3.8933427785530683
1718451842794326500,38.19032641601562,2.045366302914917,8.552862821581959,-4.339980630637705
1718451842844096800,38.2400966796875,2.55354700345993,8.317378825971483,-4.524488472248613
1718451842893865500,38.28986547851562,2.5921634421020743,8.282527292820811,-4.566270973706245
1718451842943635700,38.3396357421875,2.0785114705391226,8.56514947170317,-4.299815208987892
1718451842993404700,38.38940478515625,2.2908478147961198,8.358537350311876,-4.588816567513346
1718451843043174700,38.439174560546874,2.6314702010959383,8.01887051117122,-4.994344410574436
1718451843092943600,38.48894360351562,2.44503139142245,8.317232110977173,-4.584306688873469
1718451843142712800,38.538712890625,2.2021216297253967,8.513301211044192,-4.34105381282717
1718451843192482800,38.58848291015625,1.6193880847603082,9.035798898494242,-3.449966558612883
1718451843242251800,38.63825170898438,1.0766190320454536,9.337252619096637,-2.7976778313845396
1718451843292021800,38.68802172851562,0.286648146462813,9.526484566619992,-2.309614766847342
1718451843341790700,38.73779077148438,-0.34709300708603114,9.63563000099361,-1.790128828433901
1718451843391560700,38.78756079101562,-1.0791132600139826,9.669733930647373,-1.2256215527720749
1718451843441329700,38.83732958984375,-1.4556506439775228,9.680665659028291,-0.5798232835415751
1718451843491098600,38.8870986328125,-1.6239859339445828,9.671178284236788,-0.03688876774945529
1718451843540868900,38.93686889648438,-1.6462953809082508,9.666312724027037,0.15000935968160628
1718451843590637600,38.98663745117187,-1.3421052210792899,9.714209032189846,-0.05724682263373397
1718451843640407800,39.03640771484375,-0.3219226177332923,9.755721192273498,-0.9448066425073891
1718451843690176800,39.0861767578125,0.7609283309716731,9.574038344955444,-1.9822130966484546
1718451843739946800,39.13594677734375,1.5875262349449097,9.159667854747175,-3.122599813596904
1718451843789715700,39.1857158203125,2.0031782893963155,8.817820748957992,-3.7952155818000435
1718451843839484700,39.23548461914063,2.3016870425879956,8.55707605536282,-4.201076894599199
1718451843889255000,39.2852548828125,2.6789506219342347,8.364719253817201,-4.361774529294669
1718451843939023600,39.33502368164063,2.4428199989832935,8.408701603406668,-4.41551342600584
1718451843988793900,39.3847939453125,2.254685491307825,8.676388663485646,-3.975806834489107
1718451844038562800,39.43456274414063,2.683939224001765,8.180695980852843,-4.695005490168929
1718451844088331800,39.484331787109376,2.4747075677618384,8.161233155491947,-4.841536652345955
1718451844138101500,39.5341015625,2.545289170463383,8.29569481742978,-4.56873268764466
1718451844187870700,39.58387060546875,2.032722948310524,8.737312795525789,-3.962038713638484
1718451844237640700,39.633640625,1.5818800457514821,9.193076787874102,-3.0257831149205563
1718451844287409700,39.68340966796875,0.9141409436739981,9.433027699765562,-2.5204598496332764
1718451844337178600,39.7331787109375,0.1638311469482258,9.587785715278983,-2.0537603295117615
1718451844386948600,39.782948486328124,-0.5177777097234502,9.672752401685715,-1.5297557446300982
1718451844436717800,39.8327177734375,-1.0187921353682876,9.70646119454205,-0.957628349353373
1718451844486486800,39.88248681640625,-1.39681018634364,9.701569915369152,-0.3144095752220601
1718451844536256500,39.93225659179687,-1.3641102782689034,9.711039169982076,0.07277521745541599
1718451844586025700,39.98202563476563,-1.3567416491970419,9.711436060345171,0.13291602166472002
1718451844635795700,40.03179565429687,-0.7359946729842572,9.774624630185961,-0.29226081697912887
1718451844685564400,40.081564453125,0.4417646930903196,9.70953928681314,-1.3038793891899287
1718451844735333600,40.131333740234375,1.2346879256725312,9.409095620036124,-2.472830083452165
1718451844785103600,40.181103515625,1.928026456169784,8.92852919486463,-3.5685391620233653
1718451844834872800,40.230872802734375,2.1292657984815535,8.66153771583438,-4.0760771807506675
1718451844884641500,40.2806416015625,2.646799579913914,8.41610048148632,-4.281833562095463
1718451844934411500,40.33041162109375,2.860160591043532,8.318439148679374,-4.335136697737872
1718451844984180700,40.3801806640625,2.3357734365850686,8.512830086401104,-4.271567604146898
1718451845033949700,40.42994970703125,2.4852950127497313,8.55437205710113,-4.100782290679216
1718451845083719700,40.4797197265625,2.844156673964858,8.032946382796764,-4.853135320203006
1718451845133488000,40.529488037109374,2.2900429281540213,8.313360237979888,-4.670561953786015
1718451845183258000,40.579258056640626,2.4176620307207104,8.46054226528108,-4.329496646024286
1718451845233027300,40.62902734375,1.8955467667169867,8.83156695023775,-3.818471077442169
1718451845282796000,40.67879614257812,1.5626859543293714,9.216379337528348,-2.9642469884619116
1718451845332566000,40.72856591796875,0.5659592645684257,9.492105911678076,-2.3979199500270187
1718451845382335200,40.77833520507812,0.01832871133100707,9.604559739947318,-1.9805245590396223
1718451845432104200,40.82810424804688,-0.6922050694879144,9.657339143976568,-1.5578981355309485
1718451845481874200,40.87787426757812,-1.0804031536940484,9.689101478940248,-1.0604005223680286
1718451845531643100,40.92764306640625,-1.4749091789379716,9.684190326023101,-0.4598895843783393
1718451845581412000,40.977412109375,-1.4361676526114344,9.700411392983794,-0.09925462074722163
1718451845631181300,41.02718139648437,-1.4643234875157474,9.69664999462366,-0.033804866792086975
1718451845680951000,41.07695092773437,-0.9982385190960019,9.746831783375143,-0.41617359410747884
1718451845730720000,41.12671997070313,0.11627887558327056,9.706225047698616,-1.395003136921674
1718451845780489200,41.1764892578125,1.0287463239539414,9.438506423437595,-2.4549343612775205
1718451845830259200,41.22625927734375,1.832896103145182,8.980305559331178,-3.487841238977015
1718451845880028200,41.276028076171876,2.239872829840332,8.671472249871492,-3.9948616635709997
1718451845929797000,41.325797119140624,2.682422974219918,8.44276929270327,-4.20650242677927
1718451845979567000,41.375567138671876,2.955784572803974,8.300325399839878,-4.305616588743031
1718451846029336300,41.42533642578125,2.5215432609558106,8.431054889512062,-4.327764707665145
1718451846079105000,41.47510498046875,2.392842354501784,8.623591723799706,-4.009783630631864
1718451846128875000,41.524875,2.745051864351332,8.14541482411325,-4.7209433567628265
1718451846178645000,41.57464501953125,2.3977668052919205,8.18702109222114,-4.836712885451316
1718451846228414000,41.6244140625,2.294826509168744,8.397084815371036,-4.515871450550854
1718451846278184000,41.674183837890624,1.978536453962326,8.731351841294765,-4.0024049185574055
1718451846327953200,41.723953125,1.6143056669294833,9.183402950599788,-3.038014819984138
1718451846377722000,41.77372216796875,0.7353044256977737,9.45600876238048,-2.4927117187470196
1718451846427491000,41.823490966796875,0.1698462425192818,9.584822189298272,-2.067059371545911
1718451846477261000,41.87326098632813,-0.4396208494620397,9.662714407274127,-1.6152597527839243
1718451846527030000,41.923030029296875,-0.9831428759686648,9.694011462813615,-1.1090301863066852
1718451846576799000,41.97279907226562,-1.3591094012416898,9.702398767408727,-0.43203485131245106
1718451846626569000,42.02256884765625,-1.4259791438132523,9.702373632967472,0.03044388875927543
1718451846676338000,42.072337890625,-1.4744852544374762,9.69389046678245,0.15735413295384496
1718451846726107100,42.12210717773438,-1.1868559879828244,9.734480835846066,-0.040606557580013754
1718451846775877000,42.17187719726562,-0.23139327396443113,9.762029937028885,-0.905330006839335
1718451846825645800,42.221645751953126,0.8433560734853148,9.571686228871345,-1.960091573472321
1718451846875415000,42.2714150390625,1.5118205672279,9.184695913019775,-3.0864453811541197
1718451846925184000,42.32118408203125,2.0411622753538192,8.831664565393329,-3.742421272462606
1718451846974954000,42.3709541015625,2.334295765247941,8.58600287463963,-4.123352726666629
1718451847024723000,42.42072290039062,2.6898586771786213,8.38439542966783,-4.317054805341363
1718451847074492000,42.47049194335938,2.4857071006819607,8.390252923524379,-4.4266599661812185
1718451847124260900,42.5202607421875,2.0850052164725956,8.678792802017927,-4.062228395879268
1718451847174030000,42.57003002929687,2.4021741003401575,8.335199729344248,-4.5743180865615605
1718451847223799300,42.61979931640625,2.380001577629149,8.140560954341291,-4.92313093971014
1718451847273568300,42.669568359375,2.2165822628848253,8.396842238786816,-4.555241045647859
1718451847323338200,42.71933813476563,1.9525164620429276,8.667032806119323,-4.152181930787861
1718451847373107200,42.76910717773438,1.5331275591507554,9.163647279772162,-3.1380726925387976
1718451847422876200,42.818876220703125,0.7368986360866576,9.427193002262712,-2.5991122383266685
1718451847472645400,42.86864526367187,0.08326518885162658,9.561237900093197,-2.1785724118337035
1718451847522415000,42.9184150390625,-0.49598205750081686,9.647299980521202,-1.6893810739189385
1718451847572184000,42.96818408203125,-1.0127435028538108,9.684242932993174,-1.1662662044186145
1718451847621953300,43.01795336914063,-1.396595666810125,9.691591542190313,-0.5412578079016879
1718451847671722200,43.06772216796875,-1.486260594035685,9.693247492703795,-0.048650231802649796
1718451847721492200,43.1174921875,-1.5493211535826326,9.683066290429235,0.09081217929823324
1718451847771261200,43.16726123046875,-1.1690585385508834,9.735856800374387,-0.12962214948479087
1718451847821030100,43.21703002929687,-0.11206947772731073,9.754124862992763,-1.007413320806995
1718451847870799000,43.26679907226563,0.8881758968122303,9.54575216166973,-2.0640122589349748
1718451847920569000,43.31656909179687,1.6737277238436041,9.128370799207687,-3.1688904401287434
1718451847970338000,43.36633813476563,2.1423317624121903,8.80273540802896,-3.7540149718835947
1718451848020107300,43.416107177734375,2.411358985053748,8.562620830008386,-4.127619736461341
1718451848069876200,43.46587622070312,2.749026028679311,8.39217073984444,-4.264352558201551
1718451848119646000,43.51564599609375,2.515393213893473,8.424634501075744,-4.34381392519027
1718451848169415200,43.56541528320312,2.2925101950503883,8.650589036318658,-4.010250955882668
1718451848219184400,43.61518432617188,2.385769493506104,8.376625380188226,-4.506733327588439
1718451848268953300,43.664953369140626,2.2524548096463084,8.303495846569538,-4.706253444892168
1718451848318723300,43.71472338867188,2.0784224770814177,8.546222068393229,-4.337356711874902
1718451848368492300,43.7644921875,1.9020394897371529,8.737245575508474,-4.0265632082581515
1718451848418261200,43.81426123046875,1.413854260125011,9.198995656529068,-3.0902862744912505
1718451848468030200,43.8640302734375,0.6107899015503003,9.473063357555866,-2.4613798841550945
1718451848517800400,43.913800537109374,-0.00854483210273902,9.594911621636152,-2.0268146010495722
1718451848567569200,43.96356909179688,-0.6539970655161887,9.659602997255325,-1.5603730012118815
1718451848617338400,44.01333837890625,-1.1763153047461061,9.684139472618698,-1.0020617306459694
1718451848667107300,44.063107421875,-1.5363108653619884,9.679096802276373,-0.35388438425920904
1718451848716876300,44.11287622070312,-1.5441468196846544,9.683944826829434,0.08495835696980357
1718451848766646300,44.16264624023437,-1.5684968325652182,9.67898632763922,0.16569007268790154
1718451848816415200,44.21241528320313,-1.0847618603602052,9.743381350660323,-0.24536420564446595
1718451848866184200,44.26218408203125,0.09711324307066388,9.717247961494326,-1.3175913959391414
1718451848915953400,44.311953369140625,1.047003572917357,9.451922954371572,-2.394858078238368
1718451848965722400,44.36172241210937,1.8527213320776819,8.989764877071977,-3.452814056998491
1718451849015492000,44.4114921875,2.0969019904933868,8.702477628988028,-4.005031175407767
1718451849065261300,44.46126123046875,2.350266072317958,8.448956456905602,-4.388824156522751
1718451849115030300,44.5110302734375,2.5219910047233105,8.325533490854502,-4.52718925563991
1718451849164799500,44.560799560546876,2.1466677457898853,8.488121761602162,-4.417462514247
1718451849214568400,44.610568359375,2.274958756268769,8.566613114514947,-4.1961993516907095
1718451849264338400,44.66033837890625,2.3712308266744015,8.09332223330438,-5.004578219819068
1718451849314107400,44.710107421875,2.049001298416406,8.24750507927835,-4.8939407933220265
1718451849363876400,44.75987646484375,2.078687557758391,8.380439970040321,-4.649481464095413
1718451849413645600,44.8096455078125,1.5558601999625563,8.848220563396811,-3.9317549267947673
1718451849463414500,44.85941455078125,1.1697253318965435,9.245397926741838,-3.0536461043581364
1718451849513184300,44.909184326171875,0.35842111437339336,9.453750169798731,-2.582349904096126
1718451849562953500,44.95895336914062,-0.2421545776818879,9.565039630463719,-2.1498270866036413
1718451849612722400,45.00872241210938,-0.8520167151290923,9.62607715975046,-1.6682603983484208
1718451849662491400,45.058491455078126,-1.313537736634165,9.654608842229843,-1.1106454394835978
1718451849712260600,45.108260498046874,-1.549617652311176,9.670636432445049,-0.4978599802019074
1718451849762030300,45.1580302734375,-1.6240362028270958,9.67063175626993,-0.1084368111802265
1718451849811799600,45.207799560546874,-1.6667545238301158,9.663894556969403,-0.0380037181378575
1718451849861568500,45.25756860351562,-1.1829788542885333,9.725362878888845,-0.4339047368375584
1718451849911337500,45.30733740234375,0.005162266717560124,9.697576461818814,-1.45855601003021
1718451849961106400,45.3571064453125,0.9298964389495551,9.458162141022086,-2.4184376912683248
1718451850010876400,45.40687646484375,1.8682156921990214,9.02884776418209,-3.34066388785094
1718451850060645400,45.456645263671874,2.2495643489018082,8.7569842952013,-3.798030346959829
1718451850110414600,45.50641455078125,2.4150866272747513,8.521682085898519,-4.20935664716661
1718451850160183800,45.55618383789062,2.5657290241628883,8.371469897121191,-4.4165477374896405
1718451850209952800,45.60595288085938,2.0984800534650683,8.526637662479281,-4.366145876246691
1718451850259722000,45.655721923828125,2.2267472446769476,8.570719380789996,-4.2136382700085635
1718451850309492000,45.70549194335938,2.7021017804190515,8.009761322042346,-4.97119149852395
1718451850359260700,45.7552607421875,2.272069318437576,8.205065282955765,-4.86672428509444
1718451850409030000,45.80502978515625,2.1257355785287917,8.410366321748494,-4.573553824190795
1718451850458798800,45.854798828125,1.8034509590826928,8.716217985048889,-4.11648868611604
1718451850508567800,45.90456787109375,1.4345939735539257,9.15454802751541,-3.210391494296491
1718451850558337000,45.9543369140625,0.5109970731399953,9.429511800599098,-2.644536018896103
1718451850608106000,46.00410595703125,-0.0877070254902821,9.559539279481768,-2.1858387495748697
1718451850657875700,46.05387573242187,-0.684756068656221,9.642227499562502,-1.6519509224519133
1718451850707645000,46.10364501953125,-1.1790022788077592,9.668810970583557,-1.1377246581323444
1718451850757414000,46.153413818359375,-1.5118329883180557,9.671443657174706,-0.5898434865681454
1718451850807182800,46.20318286132812,-1.554933732767403,9.681496849155426,-0.1455147516760975
1718451850856952000,46.2529521484375,-1.6105651652269064,9.67343044707775,-0.03458722879183478
1718451850906720800,46.302720703125,-1.182761850536987,9.73184288855791,-0.250359018257074
1718451850956491000,46.35249096679688,-0.12456202568416483,9.736548289769887,-1.1638258985944092
1718451851006260000,46.40226000976563,0.9102700935900211,9.506830018079281,-2.227550377753377
1718451851056029000,46.45202880859375,1.7229504583045838,9.074822164371609,-3.2938457303136586
1718451851105798000,46.5017978515625,2.2070343900777396,8.740186305135488,-3.8611569574803113
1718451851155566600,46.551566650390626,2.4423547195591033,8.483233989560604,-4.270831691087782
1718451851205335800,46.601335693359374,2.696358560591936,8.329132392129301,-4.418778273020685
1718451851255104800,46.65110473632812,2.3221866636507213,8.404568449124694,-4.48788395795077
1718451851304873700,46.70087377929688,2.1047240624211727,8.71440772075653,-3.9748751065969463
1718451851354643700,46.75064379882812,2.543865859661996,8.269144079634547,-4.617397349831462
1718451851404412700,46.80041259765625,2.3220360031336544,8.18308550633788,-4.880126787503063
1718451851454181600,46.850181640625,1.9237616383321583,8.671899535372853,-4.155444439715147
1718451851503950800,46.89995092773437,2.025056505335867,8.6436326413095,-4.166191459178925
1718451851553719800,46.9497197265625,1.4586694072768092,9.06335267585218,-3.449397526553273
1718451851603488800,46.99948876953125,1.0524421107094735,9.354784184134006,-2.7478616610750555
1718451851653257700,47.0492578125,0.15877472207518292,9.529331188222764,-2.310202065216005
1718451851703026700,47.09902661132813,-0.4906156716294586,9.609285014903545,-1.8950813411623237
1718451851752795600,47.148795654296876,-1.1050509074121713,9.648545596668123,-1.361907361397147
1718451851802566000,47.19856591796875,-1.3726727933004497,9.6791008939296,-0.7753462209679186
1718451851852334800,47.2483349609375,-1.5980895684048533,9.672613869997859,-0.23883268498387186
1718451851902103600,47.298103515625,-1.67849157724455,9.661861589837073,-0.03843590814319905
1718451851951872800,47.34787280273437,-1.4216019516423344,9.702644851124287,-0.09011785862483083
1718451852001641700,47.39764184570313,-0.4433585016204044,9.765242469334602,-0.7834890492826699
1718451852051410700,47.44741064453125,0.7591339218355715,9.582724924758075,-1.9404834944218396
1718451852101180000,47.49717993164062,1.4951708995915949,9.19927271990478,-3.0509438596621155
1718451852150949000,47.54694921875,2.2442576207958163,8.748690514108539,-3.8202228895455597
1718451852200717800,47.5967177734375,2.6927467998355628,8.420145372962951,-4.245077072106302
1718451852250488000,47.64648803710938,3.272653889203071,8.127380570250748,-4.405204213437438
1718451852300257000,47.69625708007813,3.1476722955331207,8.135215501660108,-4.481158449088037
1718451852350026000,47.74602587890625,2.2895003457099197,8.554141170954704,-4.213697306719422
1718451852399795000,47.795794921875,2.484003511634469,8.625735165569186,-3.949282692439854
1718451852449564000,47.84556396484375,2.4641253834709524,8.131226724284886,-4.897107148398459
1718451852499332900,47.895332763671874,2.219570631045848,8.464798169159888,-4.4261824117973445
1718451852549101800,47.94510180664062,2.264860556102544,8.582332661694288,-4.169456598454714
1718451852598871000,47.99487109375,1.6416674288466573,9.006392186746,-3.5157103658944364
1718451852648640000,48.044639892578125,1.1514463825579733,9.322906698358059,-2.815661231842637
1718451852698409000,48.09440893554687,0.31697865852508694,9.506043836137652,-2.388522445476055
1718451852748178000,48.14417797851563,-0.3055604618014768,9.608815643826127,-1.9358888601079582
1718451852797948000,48.19394799804687,-0.8164110026102512,9.665618896543979,-1.4421163318827748
1718451852847716900,48.243716796875,-1.1708760363016277,9.697010644629596,-0.8760323814887553
1718451852897486000,48.29348608398438,-1.4865772587694226,9.689103232505916,-0.28594153256341814
1718451852947254800,48.3432548828125,-1.4944582212775945,9.692036363348365,-0.037553608883335254
1718451852997023700,48.39302368164063,-1.3760242956854403,9.709629887706042,-0.0063605297415517265
1718451853046793000,48.44279296875,-0.6515223459657281,9.770068282055854,-0.5400657851055264
1718451853096562000,48.49256201171875,0.5640718799192458,9.669022567507625,-1.536952232005447
1718451853146330000,48.542330078125,1.349971716670692,9.341846376627682,-2.6604303381204604
1718451853196099300,48.592099365234375,2.1160675864733753,8.922456012430786,-3.475977198182046
1718451853245868300,48.64186840820312,2.3613937616623937,8.688928411585092,-3.8854546556517477
1718451853295637200,48.69163720703125,2.7532231881082057,8.463254446849227,-4.118677720592916
1718451853345406200,48.74140625,2.776815076097846,8.387853461167216,-4.254833034706116
1718451853395175200,48.79117504882812,2.220568409911543,8.587228032520413,-4.183182925990224
1718451853444944100,48.84094409179688,2.2825268534354866,8.701748145669699,-3.903851020824909
1718451853494713000,48.890713134765626,2.492106738591194,8.320234799924492,-4.553404477870464
1718451853544482300,48.940482421875,2.0680393224939704,8.466919983619452,-4.4949829763010145
1718451853594251300,48.99025122070312,2.0434185298480094,8.70122382953465,-4.035288951027393
1718451853644021200,49.040021240234374,1.790582855811715,8.969035392776131,-3.538450020968914
1718451853693790200,49.08979028320312,1.4754082145012914,9.320769101807475,-2.667735692697763
1718451853743559200,49.13955908203125,0.4689260735971853,9.547668224424124,-2.189182507044822
1718451853793328400,49.189328369140625,-0.08628912151637487,9.627468321847916,-1.864080199829489
1718451853843097000,49.23909716796875,-0.7702552545044571,9.675162969958782,-1.4029728006266056
1718451853892866000,49.28886596679688,-1.0862782562725246,9.710108611133695,-0.8391373598117381
1718451853942635000,49.338635009765625,-1.3892387281760572,9.70317851960957,-0.2978578515348956
1718451853992404200,49.388404296875,-1.3672408313795923,9.710739894774555,-0.05063656048139091
1718451854042173200,49.43817309570313,-1.2804600812882185,9.722688691243528,-0.011302015006524743
1718451854091942100,49.487942138671876,-0.7086075574301183,9.767097741812467,-0.5215961720330641
1718451854141711400,49.53771142578125,0.49273211579415943,9.68734615970552,-1.4432278002560137
1718451854191480000,49.58747998046875,1.2728851159892975,9.398446215727924,-2.493861765564978
1718451854241249300,49.63724926757813,2.0304088261492548,8.976631254732608,-3.386428736943006
1718451854291018200,49.687018310546875,2.229407403796911,8.729211906656623,-3.87311393725574
1718451854340787200,49.736787109375,2.593088740253448,8.52016875872612,-4.105244530785083
1718451854390556400,49.78655639648437,2.7597242405653,8.424757835194468,-4.192588175456225
1718451854440325400,49.83632543945313,2.2182551645331086,8.601100490528344,-4.155815611115098
1718451854490094000,49.88609399414062,2.492066406580806,8.657280058389901,-3.87446564412564
1718451854539863300,49.93586328125,2.8051155801698564,8.140083984479308,-4.694756483843922
1718451854589632300,49.98563232421875,2.5785557725101707,8.293077912929654,-4.554812006580829
1718451854639401200,50.035401123046874,2.5452523455843328,8.392050912857055,-4.3892569949820635
1718451854689170400,50.08517041015625,2.0237932074017824,8.843458463561534,-3.7239603176206346
1718451854738939400,50.134939453125,1.6004562975361942,9.25973449513018,-2.804683033971488
1718451854788708000,50.1847080078125,0.8493808136675506,9.491188796833157,-2.3165235233224926
1718451854838477300,50.234477294921874,0.1258583947707899,9.610748073193431,-1.9462937881357967
1718451854888246300,50.28424633789062,-0.5333465233204886,9.675523619964718,-1.506704831649363
1718451854938015200,50.33401513671875,-0.901981134802848,9.712143331831694,-1.015423974109441
1718451854987784200,50.3837841796875,-1.293960637243837,9.711845225667952,-0.4196586597442627
1718451855037553400,50.43355346679687,-1.375992731503397,9.709591309261322,-0.029591948105057234
1718451855087322000,50.483322021484376,-1.4625380654036997,9.695950321921705,0.14115683959438466
1718451855137091000,50.533091064453124,-1.182634278634563,9.735054836341739,0.02211060905647464
1718451855186860800,50.58286083984375,-0.3191265207413584,9.767378312319517,-0.8166215766210109
1718451855236629800,50.63262963867187,0.8078864815015345,9.599458032894134,-1.8352512879692018
1718451855286398700,50.68239868164063,1.511360694631189,9.266590936896204,-2.831336647619307
1718451855336168000,50.73216796875,2.0846432512924076,8.926593842887877,-3.484330308246612
1718451855385936600,50.7819365234375,2.333095157286525,8.686682678484916,-3.9075110046371817
1718451855435705600,50.83170556640625,2.645771990431845,8.482818979018926,-4.148739973640442
1718451855485474800,50.88147485351563,2.505499304127693,8.458831954231858,-4.282642248129845
1718451855535243800,50.931243896484375,2.1850452611096203,8.702011765041947,-3.9586569622457026
1718451855585012700,50.9810126953125,2.6580115865409373,8.301247190859913,-4.4938452044427395
1718451855634782000,51.03078198242188,2.9072745166569947,8.071185804820061,-4.7512204216048115
1718451855684550700,51.080550537109374,2.3545897807359695,8.606648772305249,-4.068401239295303
1718451855734319600,51.13031958007812,2.4070544197276234,8.622123404812813,-4.004429410122334
1718451855784088800,51.1800888671875,1.8438861375845967,8.98222279112935,-3.477091296903789
1718451855833857800,51.22985791015625,1.488879982753843,9.321277635851501,-2.6584587457865476
1718451855883626800,51.279626708984374,0.5998955095050856,9.540729949593544,-2.1874621129930016
1718451855933396000,51.32939599609375,-0.0802657239078544,9.641486910328268,-1.790442132166773
1718451855983164700,51.37916455078125,-0.81962119682841,9.68285118637383,-1.319474579337239
1718451856032933600,51.42893359375,-1.1813711998961864,9.703646721643208,-0.7835803808279335
1718451856082702800,51.47870288085937,-1.4564637139260768,9.695482119888066,-0.2162122906411998
1718451856132471800,51.52847192382813,-1.442600900529325,9.699961311128735,-0.0051020078764617205
1718451856182240500,51.578240478515625,-1.295472356981039,9.720643449151515,-0.035036876822053455
1718451856232009500,51.62800952148437,-0.6100207438087091,9.770869077044726,-0.5730621188435703
1718451856281778700,51.67777880859375,0.6035252443095669,9.670324297755956,-1.5135909379012882
1718451856331547400,51.72754736328125,1.3937341398991643,9.324295522367954,-2.69914789904952
1718451856381316400,51.77731640625,2.068679666224122,8.84678614667952,-3.691251933978498
1718451856431085600,51.82708544921875,2.2395482740610837,8.601421977567671,-4.143712208606303
1718451856480854500,51.8768544921875,2.8037629965171216,8.37480927067697,-4.262846245291829
1718451856530623500,51.92662353515625,2.8650287816017865,8.313796875831484,-4.340830525465309
1718451856580392700,51.97639282226562,2.3383809887349605,8.583032918918132,-4.12721232470423
1718451856630161400,52.02616137695313,2.7054341397121546,8.552007081535457,-3.9641117205202576
1718451856679930400,52.075930419921875,2.8857661569431423,8.211798975124955,-4.517644305442273
1718451856729699600,52.12569946289062,3.05660495416373,8.076040259113908,-4.648130634008348
1718451856779468500,52.17546850585938,2.4783301421731707,8.354002629491687,-4.498768632319569
1718451856829237500,52.225237548828126,2.0446704296052456,8.881655215486884,-3.6202103125497698
1718451856879006700,52.2750068359375,1.445483324097842,9.188877582618593,-3.105719990466535
1718451856928775400,52.324775390625,0.9097179395999759,9.40018867548108,-2.641831143851578
1718451856978544400,52.37454443359375,0.1465488896299619,9.572261398410797,-2.126192528516054
1718451857028312300,52.42431225585938,-0.43516445457506925,9.655178166550398,-1.660892353798449
1718451857078081500,52.47408154296875,-0.9466267706066369,9.697577046340703,-1.109623841350898
1718451857127850500,52.5238505859375,-1.2885301366277038,9.710143097925185,-0.4724292959451675
1718451857177619700,52.57361962890625,-1.3579095239326358,9.712098323646186,-0.04024052357948385
1718451857227388700,52.623388671875,-1.4335773438572883,9.700295073127746,0.13973540108967572
1718451857277157600,52.67315771484375,-1.2224139889024197,9.730127901333569,0.02676965494265314
1718451857326926600,52.72292651367187,-0.2911251274800859,9.771521987995504,-0.7765230827275663
1718451857376695600,52.77269555664063,0.7535958691917359,9.604744448864459,-1.830679450009018
1718451857426464500,52.822464599609376,1.4981901012822985,9.205138981589675,-3.0317008145317432
1718451857476233700,52.872233642578124,1.8211900293909011,8.83117590509355,-3.855385680602491
1718451857526002700,52.92200268554687,1.7486290894404053,8.590128430137037,-4.395725314213335
1718451857575771600,52.97177172851563,1.9506402929075062,8.445531743153929,-4.586759634983539
1718451857625540600,53.02154052734375,1.5918679174110293,8.45481862693727,-4.706631046032905
1718451857675309600,53.0713095703125,1.3120106731973589,8.750940338861941,-4.227297085265815
1718451857725078500,53.12107861328125,1.5446286118522286,8.329911559808254,-4.939339147189259
1718451857774846500,53.17084643554688,1.4675022636823356,8.241944522541761,-5.107559286344051
1718451857824615700,53.22061572265625,1.083441352346167,8.80836786095798,-4.172433276177943
1718451857874384600,53.270384521484374,1.042219845772162,8.66977772091329,-4.463082401910424
1718451857924153600,53.32015356445312,0.36044293905720115,8.976005816310643,-3.9334149689614772
1718451857973922800,53.3699228515625,-0.16281813398078082,9.268121799725293,-3.200904119504988
1718451858023691800,53.41969189453125,-0.8281678567036986,9.410710654017329,-2.631167711018026
1718451858073460500,53.46946044921875,-1.3572554439380764,9.47743908842206,-2.1228288973018525
1718451858123229700,53.51922973632813,-1.9382750245921312,9.467056810617446,-1.669825894099474
1718451858172999000,53.5689990234375,-2.2254403998620806,9.493866491609811,-1.0412969587735832
1718451858222767900,53.618767822265625,-2.349949699845165,9.51115840267241,-0.4312604694064706
1718451858272537000,53.668537109375,-2.2952789291113613,9.531136776340007,-0.24399914610264822
1718451858322305000,53.718304931640624,-1.8453212849542497,9.623761284023523,-0.38522031050436195
1718451858372074000,53.76807397460937,-0.7072352461636066,9.706159581246972,-1.2085877811890096
1718451858421842700,53.8178427734375,0.4244932768264785,9.529964809951185,-2.2737575637854635
1718451858471612000,53.86761181640625,1.1922818854890762,9.085904699400066,-3.4921593944370746
1718451858521380900,53.917380859375,1.762398671595752,8.703039939045906,-4.16190077624768
1718451858571149800,53.96714990234375,1.800210223595798,8.451597326803206,-4.636822765791416
1718451858620919000,54.0169189453125,2.079094531124085,8.279760166195034,-4.826314533294737
1718451858670688000,54.06668798828125,1.9360833597667515,8.278618594944476,-4.887376027978957
1718451858720457000,54.11645703125,1.8066344114243984,8.571515499603748,-4.408583334481716
1718451858770226000,54.166225830078126,1.99370041308552,8.360788344109057,-4.721521741172671
1718451858819993900,54.21599389648438,2.142860170200467,8.201726493921875,-4.9305409237056965
1718451858869762800,54.2657626953125,2.066364667280018,8.469462653839587,-4.490960004395246
1718451858919531800,54.31553173828125,1.7298019316345452,8.6201518124789,-4.34409274213165
1718451858969301000,54.36530102539062,1.1875248271550982,9.068360859403013,-3.5390681528672574
1718451859019070000,54.41507006835938,0.453518807237409,9.32590354208648,-2.9987025080323217
1718451859068839000,54.4648388671875,-0.19196676104841753,9.480876077133416,-2.4993068792283535
1718451859118608000,54.51460791015625,-0.7958267720039933,9.58801543238163,-1.8992142031833528
1718451859168376800,54.564376953125,-1.3869817430295048,9.612242695665358,-1.360687756474316
1718451859218144800,54.61414477539063,-1.6834123747728764,9.628253334745764,-0.795769488858804
1718451859267914000,54.6639140625,-1.7502374014198778,9.646109893953799,-0.24413535796925423
1718451859317683000,54.713682861328124,-1.8858947028830646,9.623276715376972,-0.07944264402193948
1718451859367452000,54.76345190429687,-1.465726924572885,9.694491939806937,-0.19705772751187906
1718451859417221000,54.81322119140625,-0.4974355442447588,9.740765030682086,-1.020016416466236
1718451859466990000,54.862989990234375,0.6260266701813787,9.556350712573527,-2.110596899977326
1718451859516759000,54.91275903320312,1.2836042245328425,9.14740692358911,-3.293583572246134
1718451859566527000,54.96252685546875,1.8543299363180994,8.78939837207198,-3.9342455745667215
1718451859616296000,55.0122958984375,2.076129982230067,8.579799928346276,-4.271665219302475
1718451859666065000,55.06206494140625,2.4116119369015094,8.42482914686501,-4.40190780224055
1718451859715833900,55.111833740234374,2.2304225721888242,8.42986421842277,-4.486982917457818
1718451859765603000,55.16160302734375,1.8355780357055365,8.679208397081494,-4.179998158474266
1718451859815372000,55.2113720703125,1.9863740157201886,8.407255496251583,-4.641417984627187
1718451859865140000,55.26113989257812,2.127513255725801,8.16924870416522,-4.99073791051507
1718451859914909200,55.3109091796875,1.9316991533331571,8.461580960679054,-4.565149568460882
1718451859964678100,55.36067822265625,1.8195918004140257,8.61142314710021,-4.32467784756571
1718451860014446800,55.41044677734375,1.2973824283860622,9.134580175241828,-3.3236443639889357
1718451860064215800,55.4602158203125,0.5293854011371731,9.399669620043039,-2.7452389113560316
1718451860113985000,55.509985107421876,-0.21540508417785167,9.539851413193345,-2.2616847025454043
1718451860163752200,55.559752197265624,-0.8520467449411749,9.609172202178835,-1.7630156344503163
1718451860213521400,55.609521484375,-1.2953211119420827,9.637932432717085,-1.2660130382627248
1718451860263290400,55.65929028320313,-1.6463573402285574,9.643447981268167,-0.6810545837897807
1718451860313059300,55.709059326171875,-1.710814907091856,9.655053078866004,-0.15317625361415557
1718451860362828500,55.75882861328125,-1.7461114075310527,9.649943773028253,-0.0073985127534717315
1718451860412597500,55.80859741210938,-1.2600342561140656,9.722660634192824,-0.2293154995759949
1718451860462365400,55.85836547851562,-0.10572052882569842,9.739839148008823,-1.1378668430820107
1718451860512134400,55.90813452148438,0.8749038158502429,9.500750990426539,-2.267301081122458
1718451860561903400,55.9579033203125,1.6986702957898376,9.03584215311408,-3.4115132015779612
1718451860611672300,56.00767236328125,2.1550715631283817,8.725892991366981,-3.9223511386334895
1718451860661441300,56.05744116210938,2.444016807552427,8.463554306578636,-4.30876160877049
1718451860711209200,56.10720922851562,2.73281226824224,8.300176346758008,-4.450754250735044
1718451860760978400,56.156978515625,2.3464000445395707,8.41483089994192,-4.455943928332626
1718451860810747400,56.206747314453125,2.30160886278525,8.528554894277454,-4.258723320142924
1718451860860516400,56.25651635742187,2.6266338669806717,8.058404649180174,-4.932877842220663
1718451860910285600,56.30628564453125,2.2203308017633856,8.15451699897945,-4.974371297603845
1718451860960053500,56.35605346679687,2.1353011331230403,8.593359667143226,-4.214863427889346
1718451861009822500,56.40582250976563,1.9193175184048712,8.796735290831327,-3.886395735894143
1718451861059591200,56.455591064453124,1.3950640733286737,9.168352096462248,-3.1883371911376712
1718451861109360400,56.5053603515625,0.41154662842657413,9.43825332545936,-2.6306626841053364
1718451861159129000,56.55512915039063,-0.10001977816713042,9.564511222675442,-2.163442062719166
1718451861208897000,56.60489697265625,-0.8337025483466685,9.629671969372033,-1.6567274892039596
1718451861258666200,56.65466625976563,-1.1673318608887493,9.683475455752015,-1.0188297639649362
1718451861308435200,56.704435302734375,-1.5048483901277183,9.683873515158892,-0.35831590043324973
1718451861358204200,56.7542041015625,-1.5569453648507594,9.682153851759432,-0.047136342941247855
1718451861407973400,56.80397338867188,-1.499108385170996,9.69135130369365,0.027917596568493172
1718451861457741300,56.8537412109375,-1.0003685168620198,9.742819040602445,-0.49711537237968295
1718451861507510300,56.90351025390625,0.1355477036088705,9.690563952708244,-1.4983204496636986
1718451861557279200,56.953279296875,0.9179956463407725,9.426306867077946,-2.5440935309380293
1718451861607048200,57.00304809570312,1.6251288203693925,9.021204555952549,-3.485285709275305
1718451861656816000,57.05281616210937,1.8895647696979343,8.754440455937385,-3.9949622013360258
1718451861706585000,57.10258520507813,2.3272553452171385,8.519363872084021,-4.263180884073674
1718451861756354000,57.15235400390625,2.5178216100841757,8.381859773710369,-4.424405465252697
1718451861806123300,57.202123291015624,2.0564863934747875,8.489512339177727,-4.457514830911159
1718451861855891200,57.25189111328125,2.08038617836982,8.591161864838003,-4.246681000171601
1718451861905660200,57.30166015625,2.4086668233603237,8.157748820507527,-4.880559333701432
1718451861955429000,57.35142919921875,1.8232127673901617,8.3278289083153,-4.847014791496098
1718451862005198300,57.4011982421875,1.7669035817995666,8.730610083016753,-4.1018130950316785
1718451862054966300,57.45096630859375,1.692911732263118,8.775771413257717,-4.036122771503031
1718451862104735200,57.5007353515625,1.0050015834901482,9.163884011137485,-3.3441841709315776
1718451862154505000,57.5505048828125,0.26163101144302636,9.421984327703713,-2.7070602796092627
1718451862204274200,57.600274169921875,-0.3119153107209131,9.564486088234185,-2.143298853878677
1718451862254042000,57.6500419921875,-0.9884485080961137,9.610796588510274,-1.6810579206012188
1718451862303811000,57.69981103515625,-1.3371395614959298,9.637469491380452,-1.225412951522693
1718451862353580300,57.74958032226562,-1.646422368288785,9.64879284942746,-0.6003964812971652
1718451862403349200,57.79934936523438,-1.6567564230374991,9.66419909287393,-0.16964962396863847
1718451862453117200,57.8491171875,-1.648686513828486,9.666686233514547,-0.0858917196966242
1718451862502886100,57.89888623046875,-1.0120550821982324,9.747354930466413,-0.36768330210689454
1718451862552655000,57.94865502929687,0.2570736951985396,9.708676532503961,-1.358637838207185
1718451862602423300,57.99842333984375,1.1525907302875071,9.417409859395027,-2.480788056719303
1718451862652192000,58.04819189453125,2.1254111688800155,8.94751563488543,-3.405140451675653
1718451862701961000,58.0979609375,2.4737545048207044,8.668311740013957,-3.8615146848767994
1718451862751730200,58.147730224609376,2.751086468340456,8.455445234403014,-4.136102902646362
1718451862801498000,58.197498046875,2.829193205849826,8.333394141227007,-4.326729227137565
1718451862851267000,58.24726708984375,2.306267502246052,8.516369950965046,-4.280530370542407
1718451862901036000,58.2970361328125,2.5760399902969597,8.515027304184436,-4.126582502368092
1718451862950805200,58.34680517578125,2.7547786008566617,8.002673409608006,-4.953664025139808
1718451863000573200,58.3965732421875,2.2150128216110168,8.260476204532385,-4.798816870038211
1718451863050342100,58.446342041015626,2.2907101598910984,8.419894613072275,-4.4753138147130604
1718451863100111400,58.496111328125,1.7310091154672205,8.763931922382115,-4.045676781789958
1718451863149878800,58.545878662109374,1.3548163802228868,9.22224969086647,-3.047119625198841
1718451863199647700,58.59564770507812,0.43829760150164365,9.502654778221249,-2.3828194115288555
1718451863249416700,58.64541674804688,-0.16490281303403898,9.613706338477135,-1.9286847739480435
1718451863299185000,58.69518481445313,-0.7860736589483917,9.655947397357226,-1.5215670313470064
1718451863348953600,58.74495361328125,-1.219061390538886,9.676568745103477,-1.0238587711080909
1718451863398722600,58.79472265625,-1.5681379361249506,9.672071433684229,-0.40292248286828397
1718451863448490800,58.84449072265625,-1.5890725876040757,9.676960374769568,-0.041198102865531105
1718451863498259700,58.894259765625,-1.6290768273428082,9.67039210229516,0.005205104066399508
1718451863548028700,58.94402856445313,-0.9972984617669135,9.744311909508705,-0.4734693795826286
1718451863597798000,58.9937978515625,0.1839769313382916,9.680285135278105,-1.5583993630513548
1718451863647565800,59.04356591796875,1.018752095618844,9.384912195894122,-2.6563050748839974
1718451863697334800,59.093334716796875,1.7431547496825455,8.937657673215865,-3.6400691514909265
1718451863747103700,59.14310375976562,2.0169711062967774,8.644826235008239,-4.167635520507395
1718451863796871700,59.19287158203125,2.5129174714297053,8.364631575533748,-4.459657395897805
1718451863846641000,59.24264086914062,2.714342837832868,8.243349128642677,-4.566175112116337
1718451863896409900,59.29240991210938,2.3005004631519315,8.421550563585757,-4.4671670408755535
1718451863946177800,59.342177734375,2.338353370075673,8.570040166354179,-4.154146216598153
1718451863995946800,59.39194677734375,2.6688056600168344,8.090683116972446,-4.856820438456535
1718451864045715700,59.4417158203125,2.33684764168784,8.197159039875865,-4.849340019573271
1718451864095484000,59.49148388671875,2.121676074004918,8.385140110555291,-4.62150303158462
1718451864145252600,59.54125268554687,1.7493718706317245,8.696719503852725,-4.180568359577656
1718451864195021000,59.59102099609375,1.3713435905233025,9.173251558941603,-3.1845307845920323
1718451864244790300,59.640790283203124,0.44330768474861976,9.460451713263987,-2.5443533509179947
1718451864294559200,59.69055932617187,-0.12110908135185018,9.587321604898571,-2.0588732886113226
1718451864344327200,59.7403271484375,-0.7558417484223842,9.647137483435868,-1.5911771586678922
1718451864394096400,59.79009643554687,-1.2311515682399272,9.665556352701783,-1.10980679670237
1718451864443865300,59.839865234375,-1.5890749256916343,9.665795422154664,-0.46647246989998964
1718451864493633300,59.88963330078125,-1.526378669412434,9.687125794953108,-0.011653664288675645
1718451864543402200,59.93940234375,-1.5481196688383816,9.683679453891514,0.007893164402619003
1718451864593171500,59.98917138671875,-0.9390545087214559,9.755693135222792,-0.33913233040515334
1718451864642939400,60.038939453125,0.24213548938892782,9.713910926026106,-1.3235123104207216
1718451864692708400,60.08870825195312,1.1078059782739729,9.43467605149448,-2.435170361012965
1718451864742477000,60.13847705078125,1.8776206494040786,8.980681991428137,-3.4629882450103757
1718451864792245200,60.18824536132813,2.1875516909725965,8.676339563646913,-4.013243707957864
1718451864842014200,60.23801416015625,2.437915129676461,8.455669690808653,-4.327656571115553
1718451864891782400,60.28778247070313,2.6675129898577925,8.32466021515131,-4.444636060115695
1718451864941551000,60.337551025390624,2.2627663603022694,8.45237298735082,-4.428056973497569
1718451864991320300,60.3873203125,2.2980380185611544,8.61395997210145,-4.0852310858041045
1718451865041088300,60.437088134765624,2.7930615697607397,8.11395059531331,-4.7468967131868
1718451865090857200,60.48685717773437,2.4035814829200506,8.23444861382842,-4.7525829421296715
1718451865140625200,60.53662524414062,2.3441265466496346,8.423926645067334,-4.439923060119152
1718451865190393600,60.5863935546875,1.8857583631522952,8.690558058613538,-4.133825020842254
1718451865240162800,60.636162841796875,1.4852508324712514,9.145866708409786,-3.212092452995479
1718451865289930800,60.6859306640625,0.767810199439898,9.442461298543215,-2.5339240191012617
1718451865339699700,60.73569970703125,-0.008064925931574544,9.57867184997499,-2.1022309304311873
1718451865389467600,60.785467529296874,-0.5973732244858518,9.641693246555327,-1.688574725972116
1718451865439236900,60.83523681640625,-1.1311240908235312,9.673890465804934,-1.143151797747612
1718451865489005800,60.885005859375,-1.466964941935241,9.68361574100554,-0.4959663850076496
1718451865538773800,60.93477368164063,-1.500674173182994,9.690711836746335,-0.09210511431875638
1718451865588542700,60.984542724609376,-1.5406049092940985,9.684870124980806,0.01422770118638873
1718451865638311000,61.03431079101563,-1.0197709903378038,9.750022103849053,-0.25980609757080675
1718451865688080000,61.084079833984376,0.05583939438806847,9.723051679337024,-1.2765301944933831
1718451865737848800,61.133848876953124,1.0430662334684282,9.469432307577133,-2.3264298541784285
1718451865787616800,61.18361669921875,1.7485417034178972,9.06217369520068,-3.315115312835574
1718451865837386000,61.23338598632812,2.231469743154198,8.747402227863669,-3.830649883274734
1718451865887154000,61.28315380859375,2.4948405474692583,8.511057816031574,-4.184262537920475
1718451865936923000,61.3329228515625,2.7719872175499796,8.358768236458301,-4.31479358241111
1718451865986691800,61.38269189453125,2.403433306621015,8.447538406801224,-4.362680245962738
1718451866036459800,61.43245971679688,2.1939448991410435,8.699477862650156,-3.9593002285853025
1718451866086228700,61.482228759765626,2.402206541305035,8.251661029914022,-4.72333200546503
1718451866135997000,61.53199682617188,2.1019212799601257,8.212544825056195,-4.9301551392585035
1718451866185765600,61.581765625,1.6042540823839604,8.717177185469865,-4.196139438197016
1718451866235533600,61.631533447265625,1.7649657456047831,8.742301689854264,-4.077675555858016
1718451866285302500,61.68130249023437,1.0944682116646318,9.17680077585578,-3.2800741023316977
1718451866335071200,61.7310712890625,0.4115407832076773,9.442627302759885,-2.614919171528518
1718451866384839400,61.78083935546875,-0.24365473484545944,9.568778816992044,-2.1329547161273656
1718451866434608400,61.8306083984375,-0.8505528531216084,9.63204395920038,-1.6342166744492947
1718451866484376300,61.88037622070313,-1.2445279132939875,9.665894206354022,-1.091809294653684
1718451866534145300,61.930145263671875,-1.6482162659682333,9.65761620735228,-0.42920569230113176
1718451866583913200,61.979913330078126,-1.6551321828365324,9.665962595415115,0.010056292686681262
1718451866633682400,62.029682373046874,-1.6700728545978665,9.663294252988695,0.04453345783331897
1718451866683451400,62.07945141601562,-1.0948504889804869,9.740809454345703,-0.29719838297916573
1718451866733219300,62.12921923828125,0.10024935827245936,9.712022920322418,-1.355342596054077
1718451866782988300,62.17898828125,1.0232692807823418,9.420777290001512,-2.5243331839352843
1718451866832756500,62.22875659179687,1.8084250942334532,8.901799593371152,-3.695665366506576
1718451866882525400,62.278525390625,2.1369090067110954,8.615134861099719,-4.169347877383232
1718451866932293400,62.32829345703125,2.576925540959835,8.360860824823378,-4.4301068917647
1718451866982062300,62.378062255859376,2.821019544005394,8.241675057950616,-4.504115838566422
1718451867031830300,62.42783032226563,2.287780974571407,8.428508127638697,-4.460568081001937
1718451867081599500,62.477599609375,2.4469364943914114,8.560019707599281,-4.112051580451428
1718451867131368400,62.527368408203124,2.776868852111697,8.027859288790822,-4.900295423045754
1718451867181137000,62.57713696289063,2.4446828702457246,8.193955859920383,-4.801351649212837
1718451867230905900,62.62690576171875,2.329141597355157,8.309214224216342,-4.658586561571061
1718451867280674000,62.67667407226563,1.8498029604129491,8.784656145980954,-3.946954834014177
1718451867330443000,62.726443115234375,1.4420872519187629,9.168564277908205,-3.1667341388776897
1718451867380211000,62.7762109375,0.5929113862387836,9.405255311220884,-2.7129297561645505
1718451867429980000,62.82597998046875,-0.07729144820426591,9.544979423731565,-2.2489492857433855
1718451867479747800,62.875747802734374,-0.6904492387965321,9.629781859487295,-1.720750756303221
1718451867529517000,62.92551708984375,-1.1229038133583962,9.674494276916981,-1.1461378278210759
1718451867579285000,62.97528491210937,-1.497409764559567,9.677204120397567,-0.5290289158497006
1718451867629054000,63.02505395507813,-1.565484791267663,9.680019762340187,-0.12990809028670192
1718451867678822000,63.07482177734375,-1.6586751161403952,9.665343586733936,-0.018112239585712085
1718451867728590800,63.1245908203125,-1.20547439840883,9.729560915100574,-0.22989063258282838
1718451867778359000,63.17435913085937,-0.19655045384317635,9.727214644235373,-1.2300707872658967
1718451867828127700,63.224127685546875,0.8412795594722032,9.479892326793074,-2.365223841344565
1718451867877896000,63.27389599609375,1.5286486601710318,9.063658380800485,-3.4181413875460622
