time,seconds_elapsed,z,y,x
1718451804620273700,0.016273681640625,0.018744399771094322,-0.08404894173145294,0.03434157371520996
1718451804670045700,0.066045654296875,0.04308746010065079,-0.08853013068437576,0.15680952370166779
1718451804719817500,0.1158173828125,-0.01014726422727108,0.013905961066484451,0.027820389717817307
1718451804769588500,0.16558837890625,0.01953170821070671,-0.008893062360584736,0.040365807712078094
1718451804819360500,0.215360595703125,0.04916893690824509,-0.05208446457982063,0.06437142193317413
1718451804869132500,0.265132568359375,0.01677420549094677,-0.04903101548552513,0.032863788306713104
1718451804918904600,0.314904541015625,0.03196460381150246,-0.05527450144290924,0.09446951001882553
1718451804968675600,0.364675537109375,-0.014785748906433582,-0.03352348878979683,0.0023229746147990227
1718451805018447400,0.414447265625,0.014442033134400845,0.0038087074644863605,-0.021142464131116867
1718451805068218400,0.46421826171875,0.014783083461225033,-0.0397363118827343,0.012126756832003593
1718451805117990100,0.513990234375,0.030318617820739746,-0.01383123081177473,0.0016533408779650927
1718451805167762200,0.56376220703125,0.03835089132189751,-0.028259890154004097,-0.022642994299530983
1718451805217533400,0.613533447265625,0.022521711885929108,0.0011536150705069304,0.0022006253711879253
1718451805267305500,0.663305419921875,0.03206603229045868,0.009290025569498539,-0.015153547748923302
1718451805317077500,0.713077392578125,0.027071446180343628,-0.015875406563282013,-0.038799386471509933
1718451805366848300,0.76284814453125,0.024098409339785576,-0.014172092080116272,-0.0018937792629003525
1718451805416620300,0.812620361328125,0.015678709372878075,-0.0030381716787815094,-0.02200496196746826
1718451805466392300,0.862392333984375,0.02754754200577736,0.0032466729171574116,0.001725202426314354
1718451805516163300,0.912163330078125,0.015811696648597717,-0.0068303546868264675,-0.010288218036293983
1718451805565935400,0.961935302734375,0.004808515310287476,-0.0062981098890304565,-0.013491096906363964
1718451805615707400,1.011707275390625,-0.008700016885995865,-0.024610351771116257,-0.0019030999392271042
1718451805665478100,1.06147802734375,0.003806352848187089,0.014880925416946411,-0.021061934530735016
1718451805715250200,1.111250244140625,0.010548125021159649,-0.005825216881930828,-0.055438969284296036
1718451805765022200,1.161022216796875,0.010613112710416317,-0.029921790584921837,-0.0033431597985327244
1718451805814793500,1.21079345703125,0.0025701283011585474,-0.014667093753814697,-0.051970578730106354
1718451805864565200,1.260565185546875,0.004193425644189119,-0.017948169261217117,0.007383876480162144
1718451805914336300,1.310336181640625,0.017749160528182983,0.013317542150616646,-0.010588088072836399
1718451805964108300,1.3601083984375,0.00929701142013073,-0.020839188247919083,-0.043833136558532715
1718451806013880300,1.40988037109375,0.0021736188791692257,-0.005334494169801474,0.019659556448459625
1718451806063651300,1.4596513671875,0.004570700228214264,-0.0015118301380425692,0.0010568411089479923
1718451806113423400,1.50942333984375,0.009632932022213936,0.0029632383957505226,0.01301992405205965
1718451806163195400,1.5591953125,0.012592467479407787,-0.00219725351780653,-0.007908683270215988
1718451806212966100,1.608966064453125,0.00009810204937821254,0.009914275258779526,0.013755805790424347
1718451806262738200,1.65873828125,-0.005825336091220379,0.009389015845954418,-0.04371829330921173
1718451806312509200,1.70850927734375,0.005174353253096342,0.015486407093703747,-0.01920107752084732
1718451806362281200,1.75828125,-0.006029751151800156,0.026987675577402115,-0.023222554475069046
1718451806412053200,1.80805322265625,0.022618521004915237,0.012906701304018497,-0.018638134002685547
1718451806461824500,1.857824462890625,0.012037485837936401,-0.021818559616804123,0.0020700697787106037
1718451806511596300,1.90759619140625,0.008991613052785397,0.02918281964957714,-0.008647557348012924
1718451806561368300,1.957368408203125,-0.0008160307770594954,-0.006217313930392265,-0.028352707624435425
1718451806611139300,2.007139404296875,-0.01238336507230997,0.009168819524347782,0.01335153728723526
1718451806660911400,2.056911376953125,-0.016260480508208275,0.07177102565765381,-0.02462279424071312
1718451806710682400,2.106682373046875,0.0021570571698248386,-0.010975705459713936,0.021849580109119415
1718451806760454400,2.156454345703125,0.016087159514427185,0.038575977087020874,0.032642144709825516
1718451806810226200,2.20622607421875,0.0016427902737632394,0.040302425622940063,0.0626019611954689
1718451806859997200,2.2559970703125,0.009590794332325459,0.07723846286535263,0.01803971268236637
1718451806909769200,2.305769287109375,0.009085405617952347,0.03431403636932373,0.15144266188144684
1718451806959540500,2.35554052734375,0.04777268320322037,0.20850145816802979,0.14486925303936005
1718451807009312500,2.4053125,0.015404525212943554,0.24053454399108887,0.32411935925483704
1718451807059084300,2.455084228515625,0.0749126747250557,0.20353038609027863,0.3503552973270416
1718451807108855600,2.50485546875,-0.12889783084392548,0.25696295499801636,0.02494155988097191
1718451807158627600,2.554627685546875,0.003725679125636816,0.13071571290493011,0.12032118439674377
1718451807208398600,2.604398681640625,-0.08541383594274521,0.11099863052368164,0.25454166531562805
1718451807258170600,2.654170654296875,-0.058569882065057755,0.08932308852672577,0.2588145136833191
1718451807307942700,2.703942626953125,0.05133285000920296,0.4292390048503876,0.37098535895347595
1718451807357713400,2.75371337890625,0.09844793379306793,0.33906975388526917,0.4019612669944763
1718451807407485400,2.8034853515625,0.231218159198761,0.4415932893753052,0.7642960548400879
1718451807457256400,2.85325634765625,0.38238096237182617,-0.3062640130519867,0.2980218827724457
1718451807507028500,2.903028564453125,0.11645854264497757,0.30830687284469604,0.32678285241127014
1718451807556799700,2.9527998046875,0.5922479629516602,0.4373301863670349,-0.044860318303108215
1718451807606571500,3.002571533203125,0.5613201856613159,0.9589970111846924,-0.809278666973114
1718451807656342500,3.052342529296875,1.0129021406173706,0.740023136138916,-0.48726874589920044
1718451807706114600,3.102114501953125,1.289473533630371,1.0508757829666138,-0.2790021300315857
1718451807755886600,3.151886474609375,0.8655520677566528,0.5228420495986938,0.35181155800819397
1718451807805657600,3.20165771484375,0.3370445668697357,-1.2854841947555542,0.7714917063713074
1718451807855429600,3.2514296875,0.03595830500125885,-0.8399209976196289,0.05236631631851196
1718451807905200400,3.301200439453125,-0.05621814355254173,0.18441694974899292,-0.4088955223560333
1718451807954972400,3.350972412109375,-0.2172628790140152,0.06709480285644531,0.12899132072925568
1718451808004743700,3.40074365234375,-0.02565562166273594,0.19346895813941956,0.20743350684642792
1718451808054515700,3.450515625,-0.05976402759552002,0.09829028695821762,-0.30221137404441833
1718451808104286700,3.50028662109375,-0.2727523148059845,0.12389155477285385,-0.2399698793888092
1718451808154058800,3.550058837890625,-0.33537009358406067,-0.1378840208053589,-0.7718871831893921
1718451808203829500,3.59982958984375,-0.2216813564300537,0.16339139640331268,-0.5034556984901428
1718451808253601500,3.6496015625,-0.12738843262195587,0.9192771315574646,-0.2625157833099365
1718451808303372500,3.69937255859375,-0.08916864544153214,1.1396955251693726,-0.5822431445121765
1718451808353144600,3.74914453125,0.8970867395401001,1.1128333806991577,-1.2001045942306519
1718451808402916600,3.79891650390625,0.8309187293052673,-0.4090357720851898,-0.15984714031219482
1718451808452687600,3.8486875,-0.12037485837936401,-0.7369474172592163,2.1369307041168213
1718451808502459600,3.898459716796875,0.26272380352020264,-0.9681977033615112,0.5137976408004761
1718451808552230700,3.948230712890625,0.19727063179016113,0.03478749096393585,-0.4644249677658081
1718451808602002700,3.998002685546875,0.25042441487312317,-0.6050121784210205,0.19397805631160736
1718451808651773700,4.047773681640625,0.17899072170257568,-0.2498125582933426,0.426999032497406
1718451808701545700,4.097545654296875,0.08663475513458252,0.14692051708698273,0.07089994847774506
1718451808751316500,4.14731640625,0.006966172717511654,-0.5064982175827026,-0.03721538186073303
1718451808801088500,4.197088623046875,0.04892662167549133,-0.12105187028646469,0.008994294330477715
1718451808850859500,4.246859619140625,-0.4037444591522217,-0.3200256824493408,0.3711618483066559
1718451808900630800,4.296630859375,-0.535397469997406,-0.4853077530860901,0.2815420925617218
1718451808950402800,4.34640283203125,-0.24434742331504822,-0.6447550058364868,0.0836414098739624
1718451809000174600,4.396174560546875,-0.43410375714302063,-0.15875011682510376,0.20820178091526031
1718451809049945600,4.445945556640625,-0.35318708419799805,-0.20923009514808655,-0.20411252975463867
1718451809099717000,4.495717041015625,-0.7158161997795105,-0.4189338684082031,-0.05771128088235855
1718451809149489200,4.5454892578125,-0.8051356077194214,-0.2869143784046173,-0.25434786081314087
1718451809199260200,4.59526025390625,-0.9962268471717834,-0.45657020807266235,-0.1751289814710617
1718451809249032000,4.645031982421875,-1.2270673513412476,-0.12613096833229065,-0.31344345211982727
1718451809298803200,4.69480322265625,-1.1742137670516968,-0.20725126564502716,-0.5411332845687866
1718451809348575200,4.7445751953125,-0.7939398288726807,-0.41351792216300964,-0.3428369164466858
1718451809398346200,4.79434619140625,-0.5003179311752319,-0.6273357272148132,-0.18704833090305328
1718451809448118300,4.8441181640625,-0.507797122001648,-0.5562310218811035,0.04812828078866005
1718451809497889000,4.893888916015625,-0.45981255173683167,-0.43352243304252625,0.08512288331985474
1718451809547660000,4.943659912109375,-0.5876639485359192,-0.4414009153842926,-0.06040501594543457
1718451809597432000,4.99343212890625,-0.7410622239112854,-0.45612549781799316,-0.40816304087638855
1718451809647203300,5.043203369140625,-0.7406250834465027,-0.17226989567279816,-0.39919212460517883
1718451809696975000,5.09297509765625,-0.4686763286590576,0.26569241285324097,-0.20323790609836578
1718451809746746000,5.14274609375,-0.25293099880218506,-0.46114763617515564,0.10492872446775436
1718451809796518100,5.19251806640625,-0.5583603978157043,-0.8074893355369568,-0.14546656608581543
1718451809846289200,5.2422890625,-1.1009987592697144,-0.13133642077445984,-0.3323618173599243
1718451809896060200,5.29206005859375,-0.7016879916191101,0.020252153277397156,0.039194256067276
1718451809945832200,5.341832275390625,-0.7583866715431213,-0.09786250442266464,0.08101067692041397
1718451809995603200,5.391603271484375,-1.061855435371399,-0.21283280849456787,-0.1512264609336853
1718451810045375200,5.441375244140625,-1.092259407043457,-0.05496048927307129,0.025850920006632805
1718451810095146200,5.491146240234375,-0.762554943561554,0.34745916724205017,-0.012466652318835258
1718451810144916200,5.540916259765625,-0.6255679726600647,0.6542273163795471,0.2806786298751831
1718451810194688300,5.590688232421875,-0.7777422666549683,0.9241241812705994,0.26455503702163696
1718451810244459300,5.640459228515625,-1.0679214000701904,-0.5304346680641174,0.3465890884399414
1718451810294231300,5.690231201171875,-0.834834098815918,-3.944395065307617,0.827294647693634
1718451810344002600,5.74000244140625,-0.20658785104751587,0.9856346845626831,-0.10870034247636795
1718451810393773300,5.789773193359375,0.19749802350997925,-1.2162619829177856,-1.1439824104309082
1718451810443545300,5.83954541015625,0.2594308853149414,-1.1620818376541138,-0.48515719175338745
1718451810493316400,5.88931640625,-0.43110087513923645,-2.0765178203582764,-0.07542964071035385
1718451810543087400,5.93908740234375,-0.8769073486328125,-1.286298155784607,-0.30866700410842896
1718451810592859400,5.988859375,-0.0641932263970375,-2.1545145511627197,0.2530052363872528
1718451810642630400,6.03863037109375,-0.230067178606987,-1.4508568048477173,-0.020155619829893112
1718451810692402400,6.08840234375,0.7012220621109009,-3.2279670238494873,0.5232645869255066
1718451810742173400,6.13817333984375,0.29486340284347534,-2.24639892578125,0.2423797845840454
1718451810791944200,6.187944091796875,0.6777920722961426,-0.6336044073104858,-1.0102784633636475
1718451810841716200,6.23771630859375,0.21657773852348328,-0.6321622729301453,-0.16032348573207855
1718451810891487500,6.287487548828125,0.15646883845329285,-0.39876455068588257,-0.29784315824508667
1718451810941259300,6.33725927734375,0.10096582025289536,-1.4901230335235596,0.32752522826194763
1718451810991030500,6.387030517578125,0.3048161268234253,-1.0954779386520386,-0.1745924949645996
1718451811040801300,6.43680126953125,0.16149288415908813,-0.42296168208122253,-0.1772015243768692
1718451811090573300,6.4865732421875,0.3420165777206421,-1.446513056755066,0.5347027778625488
1718451811140344600,6.536344482421875,0.24550031125545502,-1.0614235401153564,0.038140565156936646
1718451811190116600,6.58611669921875,0.08966554701328278,-1.2723925113677979,0.0764462873339653
1718451811239887600,6.6358876953125,-0.14748823642730713,-0.3702153265476227,-0.6137645244598389
1718451811289658600,6.68565869140625,0.15453079342842102,-0.46538037061691284,-0.2242291122674942
1718451811339430700,6.7354306640625,0.1630181223154068,-0.8055729269981384,-0.2009153962135315
1718451811389201700,6.78520166015625,0.5183380842208862,-0.15743441879749298,-0.5643084645271301
1718451811438972700,6.83497265625,1.194474697113037,-0.7644156813621521,0.043700262904167175
1718451811488744700,6.88474462890625,1.2048697471618652,-1.202243685722351,0.5537696480751038
1718451811538515500,6.934515380859375,1.7945635318756104,-0.9547966718673706,0.837975800037384
1718451811588287500,6.98428759765625,1.7813589572906494,-1.1335058212280273,0.9334125518798828
1718451811638058800,7.034058837890625,1.6456677913665771,0.07688312977552414,0.7960601449012756
1718451811687829800,7.083829833984375,1.389776349067688,0.5323293805122375,0.7996469736099243
1718451811737601500,7.1336015625,0.5841798782348633,1.5239462852478027,-0.44863930344581604
1718451811787372500,7.18337255859375,1.102933645248413,-0.8440036773681641,1.4242533445358276
1718451811837143600,7.2331435546875,1.0012694597244263,2.7394676208496094,0.9859865307807922
1718451811886915600,7.28291552734375,0.44322511553764343,2.945756673812866,-0.4999139606952667
1718451811936686600,7.3326865234375,1.2921165227890015,3.5481810569763184,-0.40859559178352356
1718451811986457600,7.38245751953125,0.5366309881210327,2.0412955284118652,-0.07409366220235825
1718451812036229600,7.432229736328125,1.6427395343780518,1.477075219154358,-2.121589183807373
1718451812086000600,7.482000732421875,0.6994085311889648,-0.27338603138923645,-2.3543334007263184
1718451812135771600,7.531771728515625,1.155434250831604,0.403999924659729,-2.524906635284424
1718451812185543400,7.58154345703125,0.9136425852775574,-1.4871622323989868,-1.9351176023483276
1718451812235314700,7.631314697265625,0.6764727234840393,-2.3477022647857666,-0.7253493666648865
1718451812285085700,7.681085693359375,0.3389764130115509,-1.2097554206848145,-1.4233653545379639
1718451812334857700,7.730857666015625,-1.8155343532562256,-1.8306074142456055,-1.11825692653656
1718451812384628500,7.78062841796875,-1.2852891683578491,-0.8822659254074097,-0.607947051525116
1718451812434399500,7.8303994140625,-1.5231385231018066,-1.646360158920288,0.13320372998714447
1718451812484171500,7.880171630859375,-3.2059943675994873,-0.13058075308799744,-1.0252515077590942
1718451812533942800,7.92994287109375,-3.509852886199951,0.09583933651447296,-1.7395638227462769
1718451812583713500,7.979713623046875,-2.4439215660095215,-0.024457121267914772,-0.49863290786743164
1718451812633484500,8.029484619140625,-1.3311548233032227,0.08125437051057816,0.10916411131620407
1718451812683256600,8.079256591796875,0.9947969317436218,-0.7586317658424377,1.5380918979644775
1718451812733027600,8.129027587890626,1.9917570352554321,0.44430094957351685,1.678768277168274
1718451812782798600,8.178798583984374,2.1446120738983154,1.971527338027954,-0.22517430782318115
1718451812832570600,8.228570556640625,3.0144035816192627,1.827810287475586,0.025927241891622543
1718451812882341600,8.278341552734375,3.0279719829559326,0.8189756274223328,0.9350989460945129
1718451812932112600,8.328112548828125,2.800882339477539,1.316028118133545,0.8689797520637512
1718451812981884700,8.377884765625,2.392634630203247,1.3039616346359253,1.5260980129241943
1718451813031655400,8.427655517578126,1.2987325191497803,-1.5432442426681519,1.3702378273010254
1718451813081426700,8.4774267578125,0.5149596929550171,0.04123207554221153,0.528435468673706
1718451813131199000,8.527198974609375,-0.6821808218955994,-0.5696160793304443,1.2668015956878662
1718451813180970000,8.576969970703125,-0.9227073788642883,-0.8409987688064575,0.4070868492126465
1718451813230740700,8.62674072265625,-1.6573805809020996,-1.2743940353393555,-0.6647767424583435
1718451813280511700,8.67651171875,-3.2900550365448,-1.232496738433838,-1.283115267753601
1718451813330283800,8.72628369140625,-3.470071792602539,-3.047083854675293,-1.3041058778762817
1718451813380055000,8.776054931640624,-1.7454009056091309,-1.1751351356506348,-0.48174136877059937
1718451813429825800,8.82582568359375,-1.8173414468765259,-1.4060026407241821,-0.4538763165473938
1718451813479597800,8.875597900390625,-1.9932596683502197,0.45111316442489624,-0.5836673974990845
1718451813529368800,8.925368896484375,-0.496782511472702,0.7041745185852051,-0.6771768927574158
1718451813579139800,8.975139892578126,-0.33835288882255554,-0.013248215429484844,-1.5263205766677856
1718451813628910800,9.024910888671876,-0.8072385191917419,0.16017521917819977,-1.6294461488723755
1718451813678683000,9.074682861328125,1.3840252161026,0.26296675205230713,-0.8680800199508667
1718451813728454000,9.124453857421875,-0.28687065839767456,-1.5641120672225952,0.5866755843162537
1718451813778225000,9.174224853515625,1.0749136209487915,0.7238328456878662,1.3133389949798584
1718451813827997000,9.223996826171875,0.9416730999946594,0.22277957201004028,1.41462242603302
1718451813877767700,9.273767578125,0.3093549311161041,0.8658141493797302,0.5828485488891602
1718451813927539000,9.3235390625,0.8108803629875183,1.4181691408157349,-0.3616243302822113
1718451813977310000,9.37331005859375,1.451909065246582,0.8838539123535156,0.3287888467311859
1718451814027082000,9.42308203125,1.2934914827346802,0.9924359917640686,0.2807334363460541
1718451814076852700,9.472852783203125,1.3060208559036255,-1.8738518953323364,-0.655842661857605
1718451814126623700,9.522623779296875,3.7613372802734375,-0.0028961515054106712,0.8722611665725708
1718451814176395800,9.572395751953126,2.943530559539795,-1.4417169094085693,0.12198609858751297
1718451814226166800,9.622166748046874,-0.27292728424072266,-0.7499642372131348,-0.05630403012037277
1718451814275937500,9.6719375,-1.8175691366195679,-2.0887463092803955,-1.0963678359985352
1718451814325709600,9.72170947265625,-0.6731054782867432,-3.001478433609009,-2.2066798210144043
1718451814375480600,9.77148046875,0.035851143300533295,4.680477619171143,-2.431814432144165
1718451814425251800,9.821251953125,3.3153886795043945,-0.5820745229721069,0.0822269394993782
1718451814475022800,9.87102294921875,0.902841329574585,-1.536666750907898,-0.18023858964443207
1718451814524794600,9.920794677734374,2.1012349128723145,-3.4423627853393555,0.30393898487091064
1718451814574565600,9.970565673828125,0.8756142258644104,-1.1702170372009277,0.7656427621841431
1718451814624336600,10.020336669921875,0.09611188620328903,-2.075113534927368,0.9157851934432983
1718451814674108000,10.07010791015625,-2.24368953704834,1.6127914190292358,-0.35094377398490906
1718451814723879700,10.119879638671875,-0.44121983647346497,0.48202669620513916,0.36664658784866333
1718451814773650700,10.169650634765626,1.0006123781204224,-0.6000296473503113,1.1094545125961304
1718451814823421700,10.219421630859374,3.1955950260162354,0.023403387516736984,0.8069244623184204
1718451814873193700,10.26919384765625,3.18060564994812,-1.5752450227737427,1.023757815361023
1718451814922964500,10.318964599609375,2.289795160293579,-3.3045027256011963,3.4971213340759277
1718451814972735700,10.36873583984375,0.9737469553947449,-0.5992997884750366,1.7326334714889526
1718451815022506800,10.4185068359375,0.270164430141449,1.3050216436386108,1.1732162237167358
1718451815072278800,10.46827880859375,-0.07314983010292053,2.616489887237549,0.44684314727783203
1718451815122049800,10.5180498046875,-0.2122085690498352,1.6069332361221313,0.13597603142261505
1718451815171820800,10.56782080078125,0.9483300447463989,0.037438005208969116,0.5221566557884216
1718451815221592000,10.617592041015625,-0.23802684247493744,1.0150861740112305,0.22172261774539948
1718451815271364000,10.667364013671875,-0.4719272255897522,-0.04090486466884613,-0.4757550060749054
1718451815321135000,10.717135009765625,-1.035065770149231,-0.6223326325416565,-2.521735429763794
1718451815370905900,10.76690576171875,-1.6627546548843384,-0.5937424898147583,-2.342759132385254
1718451815420676900,10.8166767578125,-1.9673184156417847,0.9327102303504944,-2.4276018142700195
1718451815470449000,10.866448974609375,-1.261106014251709,0.3020637333393097,-1.759816288948059
1718451815520220200,10.91622021484375,-1.2607873678207397,-0.8840042948722839,-0.6174381971359253
1718451815569991000,10.965990966796875,-0.9990588426589966,-1.4410133361816406,-0.41514840722084045
1718451815619762000,11.015761962890625,-0.6965171098709106,-0.5810042023658752,0.1642850637435913
1718451815669534000,11.065533935546876,0.4057053029537201,-0.24171003699302673,0.9476637244224548
1718451815719305000,11.115304931640624,-0.5687733292579651,-0.40409865975379944,-0.15573056042194366
1718451815769076000,11.165075927734375,-0.6855950951576233,-1.7834869623184204,-0.6750107407569885
1718451815818847000,11.214846923828125,0.9268729090690613,1.536942481994629,0.716965913772583
1718451815868618000,11.264617919921875,-0.0580160915851593,1.984175443649292,-0.2672189772129059
1718451815918390000,11.31439013671875,1.1680090427398682,1.8138316869735718,1.3783888816833496
1718451815968160800,11.364160888671876,1.7181509733200073,0.22052381932735443,1.4273377656936646
1718451816017932000,11.41393212890625,0.8456404805183411,0.5175806879997253,1.305449366569519
1718451816067703000,11.463703125,0.8560936450958252,0.5595463514328003,1.1613523960113525
1718451816117475000,11.51347509765625,0.6024016737937927,2.166404962539673,1.2635633945465088
1718451816167246000,11.56324609375,0.6709679961204529,0.2775137424468994,0.4480562210083008
1718451816217016800,11.613016845703125,0.9613608121871948,0.7320948243141174,0.9568806290626526
1718451816266788000,11.6627880859375,0.8566076755523682,0.6012755036354065,0.17094425857067108
1718451816316559000,11.71255908203125,-0.1013806089758873,0.38839733600616455,0.5488417148590088
1718451816366331100,11.7623310546875,-0.36006081104278564,0.06925700604915619,-0.7157622575759888
1718451816416102000,11.812101806640625,-1.5219744443893433,-1.278822660446167,-2.2563211917877197
1718451816465873000,11.861872802734375,-2.104917526245117,-1.5048108100891113,-2.133352756500244
1718451816515644200,11.91164404296875,-1.8564814329147339,1.075950026512146,-2.5192248821258545
1718451816565415200,11.961415283203126,-1.386955976486206,-0.42656153440475464,-0.9290170073509216
1718451816615186000,12.01118603515625,-1.239780068397522,-0.8600917458534241,-0.7088965773582458
1718451816664958000,12.0609580078125,-1.0505867004394531,-2.1212000846862793,-0.16203776001930237
1718451816714729000,12.11072900390625,-0.3165005147457123,-0.23666732013225555,0.6572003960609436
1718451816764500200,12.160500244140625,0.8320279717445374,-0.605911910533905,1.2493939399719238
1718451816814271000,12.21027099609375,-1.591291904449463,0.672649621963501,-1.3319833278656006
1718451816864042000,12.2600419921875,-0.8376380205154419,0.31486746668815613,0.21633221209049225
1718451816913813000,12.30981298828125,1.671941876411438,-0.7844050526618958,1.0139384269714355
1718451816963585000,12.3595849609375,0.40615835785865784,-0.5438268184661865,0.31579336524009705
1718451817013356000,12.40935595703125,1.863547921180725,0.5883750319480896,1.0890923738479614
1718451817063127000,12.459126953125,1.5302095413208008,0.021306827664375305,1.5562900304794312
1718451817112897800,12.508897705078125,0.8300632238388062,-0.7234630584716797,1.5643023252487183
1718451817162668800,12.558668701171875,0.9344362020492554,0.38339757919311523,1.3208236694335938
1718451817212439800,12.608439697265625,0.5947844386100769,1.728973150253296,1.190589189529419
1718451817262211800,12.6582119140625,0.9422712922096252,-0.1027408018708229,0.8071615695953369
1718451817311982800,12.70798291015625,0.7786505222320557,0.923987090587616,0.5663918852806091
1718451817361753600,12.757753662109375,0.31307846307754517,0.35772597789764404,-0.15691781044006348
1718451817411524900,12.80752490234375,-0.6114661693572998,-0.15984369814395905,-0.21806582808494568
1718451817461295900,12.8572958984375,-1.386523723602295,-0.941689133644104,-1.803221344947815
1718451817511066600,12.907066650390625,-1.9886173009872437,-1.916961669921875,-2.453590154647827
1718451817560838700,12.956838623046876,-2.065964698791504,1.7247825860977173,-2.33852219581604
1718451817610609700,13.006609619140624,-1.403915524482727,1.4039438962936401,-1.3821653127670288
1718451817660381000,13.056380859375,-1.2423046827316284,-0.7921375036239624,-0.12713488936424255
1718451817710151700,13.106151611328125,-0.9316259622573853,-1.4073362350463867,-0.040179479867219925
1718451817759922700,13.155922607421875,-0.518307626247406,-0.8428753614425659,0.5297715067863464
1718451817809693700,13.205693603515625,0.8844059705734253,-0.7277907729148865,1.2358996868133545
1718451817859464700,13.255464599609375,-0.8392661809921265,-1.0925384759902954,-1.1423192024230957
1718451817909236700,13.30523681640625,-0.9405508041381836,-0.3984638750553131,0.02083372324705124
1718451817959007700,13.3550078125,1.9466036558151245,0.09883294999599457,0.7103714346885681
1718451818008778800,13.40477880859375,-0.41422292590141296,-0.176101952791214,-0.5986353754997253
1718451818058549800,13.4545498046875,2.1228063106536865,0.8182717561721802,1.7152506113052368
1718451818108320800,13.50432080078125,2.055760383605957,-0.4687855541706085,0.4566640853881836
1718451818158091500,13.554091552734375,0.8507208228111267,-0.17341041564941406,2.0845868587493896
1718451818207862500,13.603862548828126,0.9182000756263733,0.8388373851776123,1.185099482536316
1718451818257633800,13.6536337890625,0.6001322865486145,2.6713504791259766,1.1973778009414673
1718451818307405800,13.70340576171875,0.828076958656311,0.6700448393821716,0.6554377675056458
1718451818357176600,13.753176513671875,1.207519292831421,1.6420464515686035,0.7976023554801941
1718451818406947600,13.802947509765625,0.4320094883441925,0.7265660166740417,-0.33624738454818726
1718451818456718600,13.852718505859375,-0.25499409437179565,0.3813329339027405,0.5138295292854309
1718451818506489600,13.902489501953125,-0.5500435829162598,-0.23276415467262268,-0.8740168809890747
1718451818556260600,13.952260498046876,-1.6948013305664062,-0.8560948967933655,-2.292931318283081
1718451818606031600,14.002031494140626,-2.163236141204834,-1.5123748779296875,-1.5828748941421509
1718451818655802600,14.051802734375,-1.9461697340011597,1.110206961631775,-2.5651066303253174
1718451818705573600,14.10157373046875,-1.4353653192520142,-0.665116012096405,-0.42613452672958374
1718451818755344600,14.1513447265625,-1.2872172594070435,-0.8668493628501892,-0.40503087639808655
1718451818805115600,14.20111572265625,-1.0668423175811768,-2.1911280155181885,0.2818508446216583
1718451818854887700,14.2508876953125,0.01370310690253973,-0.28854018449783325,0.7333242297172546
1718451818904658400,14.300658447265626,0.9419347643852234,-1.0180153846740723,1.1291884183883667
1718451818954429700,14.3504296875,-2.8297576904296875,1.2625820636749268,-0.5627577900886536
1718451819004200700,14.40020068359375,-0.363271027803421,0.9726958274841309,0.530265748500824
1718451819053971500,14.449971435546875,1.8231115341186523,-1.3372125625610352,0.910602331161499
1718451819103742700,14.49974267578125,0.6534132361412048,-0.0358351469039917,0.357079416513443
1718451819153514000,14.549513916015625,1.6378439664840698,0.5667044520378113,1.2148689031600952
1718451819203285000,14.599284912109376,1.4746272563934326,1.0040619373321533,1.5911791324615479
1718451819253055700,14.6490556640625,0.8571190237998962,-0.15259245038032532,1.2846379280090332
1718451819302827000,14.698826904296874,0.8050352931022644,1.830808162689209,0.8800851702690125
1718451819352598000,14.748597900390624,0.9588777422904968,1.1130295991897583,0.912190318107605
1718451819402368800,14.79836865234375,1.2354753017425537,1.0244992971420288,0.8708462715148926
1718451819452139800,14.848139892578125,0.7861166596412659,0.7323856949806213,-0.004131061024963856
1718451819501911000,14.8979111328125,-0.00852280668914318,0.3008939027786255,0.39678898453712463
1718451819551682000,14.94768212890625,-0.5965254306793213,0.0665920227766037,-1.140263557434082
1718451819601452800,14.997452880859376,-2.09541392326355,-0.8483622074127197,-2.353719711303711
1718451819651223800,15.047223876953124,-2.0709238052368164,-1.0414714813232422,-1.7486798763275146
1718451819700995000,15.0969951171875,-1.759221076965332,1.1975927352905273,-2.3681752681732178
1718451819750765800,15.146765869140625,-1.364303708076477,-0.529845118522644,-0.30289217829704285
1718451819800536800,15.196536865234375,-1.1512364149093628,-0.9872220158576965,-0.2702902555465698
1718451819850307800,15.246307861328125,-0.8906236290931702,-1.904990792274475,0.3120163679122925
1718451819900078800,15.296078857421875,0.16774098575115204,0.13787667453289032,0.7646898031234741
1718451819949851000,15.345850830078126,0.7786151766777039,-0.8936079740524292,0.9425951242446899
1718451819999622000,15.395621826171874,-3.0196855068206787,1.3572248220443726,-0.5037667751312256
1718451820049393000,15.445392822265624,-0.379794180393219,0.3572113513946533,0.726331889629364
1718451820099163600,15.49516357421875,1.5342605113983154,-1.1506563425064087,0.4718034267425537
1718451820148935000,15.544934814453125,1.019054651260376,0.21144838631153107,0.6101646423339844
1718451820198704600,15.59470458984375,2.7104532718658447,0.5855506062507629,1.0409432649612427
1718451820248476000,15.644475830078125,1.4941084384918213,0.13437026739120483,1.9331119060516357
1718451820298247000,15.694246826171875,0.8223363757133484,-0.07959798723459244,1.1281741857528687
1718451820348017700,15.744017578125,0.6552903652191162,1.817406177520752,0.9479312300682068
1718451820397788700,15.79378857421875,0.7908591032028198,1.1559906005859375,0.7709856033325195
1718451820447560000,15.843559814453124,1.2412718534469604,1.0919647216796875,0.9898754954338074
1718451820497330700,15.89333056640625,0.8070180416107178,0.8423267006874084,-0.25062909722328186
1718451820547101700,15.943101806640625,-0.03929062560200691,0.383633553981781,0.47320276498794556
1718451820596872700,15.992872802734375,-0.7026928663253784,-0.18811114132404327,-0.8358765244483948
1718451820646644000,16.04264404296875,-1.9298309087753296,-1.059396743774414,-2.2659006118774414
1718451820696414700,16.092414794921876,-2.201467990875244,-1.33375084400177,-1.6842873096466064
1718451820746185700,16.142185791015624,-1.8286267518997192,1.4670770168304443,-2.464069366455078
1718451820795956700,16.191956787109376,-1.2742619514465332,-0.5284731388092041,-0.7383553981781006
1718451820845727700,16.241727783203125,-1.1155222654342651,-1.428105354309082,-0.6732412576675415
1718451820895498800,16.291498779296877,-0.9912851452827454,-1.7930923700332642,0.10826190561056137
1718451820945269800,16.341269775390625,-0.14730092883110046,0.043955497443675995,0.8906109929084778
1718451820995040800,16.391040771484374,0.8809005618095398,-0.706879198551178,1.462463617324829
1718451821044811800,16.440811767578126,-2.7523398399353027,0.5046654343605042,-0.7493053674697876
1718451821094582800,16.490582763671874,-0.07694137096405029,1.2553033828735352,0.31968939304351807
1718451821144354000,16.54035400390625,-0.1768408715724945,0.7610797882080078,-0.31183844804763794
1718451821194124300,16.590124267578126,1.5751105546951294,0.5824261903762817,1.3101097345352173
1718451821243895000,16.63989501953125,1.8142989873886108,-0.15478035807609558,1.1635528802871704
1718451821293666000,16.689666015625,0.9777963161468506,-0.14856652915477753,1.262823224067688
1718451821343437300,16.739437255859375,1.0886142253875732,-0.0013623385457322001,1.4652329683303833
1718451821393208000,16.7892080078125,0.9862101078033447,1.713019847869873,1.252911925315857
1718451821442979000,16.83897900390625,0.9917717576026917,0.18126104772090912,0.7704564929008484
1718451821492750000,16.88875,1.1357510089874268,1.0900065898895264,0.9136955738067627
1718451821542521300,16.938521240234376,0.6129537224769592,0.9725724458694458,-0.40336874127388
1718451821592292000,16.9882919921875,-0.07272999733686447,0.5386083126068115,0.2590876817703247
1718451821642062000,17.03806201171875,-0.8725845217704773,-0.42699670791625977,-1.0114554166793823
1718451821691833000,17.0878330078125,-2.077357530593872,-1.174418568611145,-2.42897891998291
1718451821741604000,17.13760400390625,-2.1596322059631348,-0.7722923159599304,-1.7961452007293701
1718451821791375000,17.187375,-1.8948438167572021,1.6605483293533325,-2.2250871658325195
1718451821841146000,17.23714599609375,-1.2113134860992432,-0.9415653347969055,-0.2679149806499481
1718451821890917000,17.286917236328126,-1.1870496273040771,-1.3246324062347412,-0.43306729197502136
1718451821940687000,17.33668701171875,-0.7293354868888855,-1.991716742515564,0.37031686305999756
1718451821990458400,17.386458251953126,0.009284391067922115,-0.4131573438644409,0.8757994771003723
1718451822040229000,17.43622900390625,1.0568623542785645,-1.0666368007659912,1.307708501815796
1718451822090000100,17.486000244140627,-2.400277614593506,0.5612022876739502,-0.6791410446166992
1718451822139770600,17.5357705078125,-0.3989345133304596,0.7594650983810425,0.44556939601898193
1718451822189542000,17.5855419921875,0.47894540429115295,-0.08399387449026108,0.3734455704689026
1718451822239311600,17.6353115234375,0.9809097647666931,0.708130419254303,0.6500304937362671
1718451822289083000,17.685082763671875,2.5146920680999756,0.31272444128990173,0.8249166011810303
1718451822338854000,17.73485400390625,1.299925684928894,0.5728564262390137,2.1623847484588623
1718451822388624600,17.784624755859376,0.8582536578178406,0.07510551810264587,1.1695197820663452
1718451822438395600,17.834395751953124,0.8364154100418091,1.2488003969192505,1.1101393699645996
1718451822488166000,17.884165771484376,0.9147282242774963,0.9674515724182129,0.8887215256690979
1718451822537936600,17.9339365234375,1.198124885559082,1.0251129865646362,0.9748944640159607
1718451822587707600,17.983707763671877,0.9073473215103149,1.0258322954177856,-0.20310552418231964
1718451822637479000,18.03347900390625,-0.1094377189874649,0.37530016899108887,0.2895917296409607
1718451822687249700,18.083249755859374,-0.4765215516090393,-0.2545957565307617,-0.7876598834991455
1718451822737020000,18.13302001953125,-1.9913989305496216,-1.4619083404541016,-2.1138916015625
1718451822786791000,18.182791015625,-2.0976462364196777,-1.2875243425369263,-1.8854899406433105
1718451822836561700,18.232561767578126,-1.8079378604888916,0.9334754943847656,-2.5415735244750977
1718451822886332700,18.282332763671874,-1.3269187211990356,0.06412128359079361,-1.0790603160858154
1718451822936103000,18.33210302734375,-1.2410202026367188,-1.1010620594024658,-0.14278332889080048
1718451822985873700,18.381873779296875,-1.0773870944976807,-1.679813265800476,0.13502876460552216
1718451823035644700,18.431644775390627,-0.007399986498057842,-0.013317505829036236,0.8266505002975464
1718451823085416000,18.481416015625,0.6332930326461792,-1.4024126529693604,0.9035364985466003
1718451823135185400,18.531185302734375,-1.9514425992965698,0.16234393417835236,-0.7695857286453247
1718451823184956700,18.580956787109375,-0.06181449070572853,0.48418688774108887,0.19539235532283783
1718451823234727700,18.630727783203124,0.2842177450656891,-0.42054858803749084,0.6522027254104614
1718451823284497400,18.680497314453124,0.7999140024185181,1.0167884826660156,0.7871211171150208
1718451823334268700,18.7302685546875,2.370816946029663,0.09448841214179993,0.3874526023864746
1718451823384039700,18.780039794921876,1.3837660551071167,-0.21962010860443115,2.149261236190796
1718451823433810400,18.829810546875,0.7992663383483887,0.5501433610916138,1.3926589488983154
1718451823483580700,18.87958056640625,0.8671655654907227,1.106052041053772,0.8567132949829102
1718451823533351700,18.9293515625,1.0268138647079468,1.0472395420074463,1.2357810735702515
1718451823583122400,18.979122314453125,1.154889702796936,0.47972819209098816,0.6744519472122192
1718451823632892700,19.028892578125,0.9411678314208984,0.6777938008308411,0.46039751172065735
1718451823682663400,19.078663330078125,0.3255520164966583,0.36914050579071045,0.07525605708360672
1718451823732434400,19.128434326171874,0.10289977490901947,-0.026930077001452446,-0.6131873726844788
1718451823782204700,19.17820458984375,-1.2526774406433105,-1.3503013849258423,-1.4884099960327148
1718451823831975400,19.227975341796874,-1.9631844758987427,-0.6572365164756775,-2.537679433822632
1718451823881746400,19.277746337890626,-2.2508440017700195,0.23135627806186676,-1.4881422519683838
1718451823931516700,19.3275166015625,-1.6744414567947388,0.607492983341217,-1.9649243354797363
1718451823981287400,19.377287353515626,-1.3931934833526611,-0.7735135555267334,0.20424999296665192
1718451824031058400,19.427058349609375,-1.407840609550476,-0.9887928366661072,0.09350192546844482
1718451824080828700,19.47682861328125,-0.9150642156600952,-2.591620683670044,0.43958374857902527
1718451824130599700,19.526599609375,0.5623698830604553,-1.4463346004486084,1.0512011051177979
1718451824180370700,19.57637060546875,0.30520182847976685,-2.0702643394470215,0.13570848107337952
1718451824230140700,19.626140625,-0.9921889901161194,0.5447021722793579,-0.5653475522994995
1718451824279911400,19.675911376953124,0.3630736470222473,2.009180784225464,0.3023267090320587
1718451824329681700,19.725681640625,-0.7343018054962158,1.0505517721176147,-1.1741387844085693
1718451824379452700,19.77545263671875,2.155492067337036,0.35045015811920166,1.5329277515411377
1718451824429223400,19.825223388671876,1.9176421165466309,0.8853673934936523,0.345874547958374
1718451824478993700,19.87499365234375,1.1677840948104858,0.34494441747665405,2.4083173274993896
1718451824528764700,19.9247646484375,0.8590538501739502,0.11364094913005829,1.0695247650146484
1718451824578534700,19.97453466796875,0.7432787418365479,1.8698227405548096,1.151877999305725
1718451824628305700,20.0243056640625,1.05846107006073,0.7325658202171326,0.5800018310546875
1718451824678076700,20.07407666015625,1.1293190717697144,1.1924892663955688,0.7398300170898438
1718451824727846700,20.1238466796875,0.4761369824409485,0.6539667844772339,-0.24184535443782806
1718451824777617700,20.17361767578125,-0.20118486881256104,0.2853153645992279,0.36129266023635864
1718451824827387600,20.2233876953125,-0.8648741245269775,0.050951309502124786,-1.2564120292663574
1718451824877158700,20.27315869140625,-2.200009346008301,-0.3920575976371765,-2.677668333053589
1718451824926928600,20.3229287109375,-2.294422149658203,-0.6911711692810059,-1.6677573919296265
1718451824976699600,20.37269970703125,-1.799033761024475,1.4283068180084229,-2.5839030742645264
1718451825026470700,20.422470703125,-1.1914024353027344,-0.9012584090232849,-0.3324911892414093
1718451825076240600,20.47224072265625,-1.0232456922531128,-1.310511827468872,-0.2452237904071808
1718451825126011600,20.52201171875,-0.7861760258674622,-1.4829515218734741,0.3329620361328125
1718451825175781400,20.571781494140627,-0.00870115403085947,0.15344010293483734,0.969600260257721
1718451825225552600,20.621552734375,0.2737085819244385,-1.523937702178955,0.7788402438163757
1718451825275322400,20.671322265625,-0.9425910115242004,0.571503221988678,-0.6328528523445129
1718451825325093600,20.72109375,-0.3513699769973755,0.5174271464347839,0.6666070818901062
1718451825374863600,20.770863525390624,1.6681901216506958,-0.5812647342681885,0.927899956703186
1718451825424634400,20.82063427734375,0.37938785552978516,-0.11858472228050232,0.12659791111946106
1718451825474404600,20.870404541015624,2.065415382385254,1.0443007946014404,1.0245623588562012
1718451825524175400,20.92017529296875,1.3961862325668335,0.8111844658851624,1.9099576473236084
1718451825573945600,20.969945556640624,0.8527064323425293,0.1020931527018547,0.9812629222869873
1718451825623716600,21.019716552734376,0.7612689137458801,1.7493009567260742,0.9257588982582092
1718451825673486600,21.069486572265625,1.052986741065979,0.8671156167984009,0.7420837879180908
1718451825723257600,21.119257568359377,1.3282370567321777,1.1075276136398315,0.8661960363388062
1718451825773027300,21.16902734375,0.5249261260032654,0.9240111112594604,-0.06907061487436295
1718451825822798600,21.218798583984373,0.21060150861740112,0.5059248208999634,0.19959478080272675
1718451825872568600,21.268568603515625,-0.24127893149852753,0.03547190502285957,-0.6687406897544861
1718451825922339300,21.31833935546875,-2.017190456390381,-1.275668740272522,-2.0787901878356934
1718451825972109600,21.368109619140625,-2.325873613357544,-1.785991907119751,-2.0561716556549072
1718451826021880600,21.417880615234374,-1.9283742904663086,1.4142624139785767,-2.125208616256714
1718451826071650600,21.467650634765626,-1.3842047452926636,-0.4456802010536194,-1.1457995176315308
1718451826121421600,21.517421630859374,-1.3095711469650269,-0.7646294832229614,0.11158622801303864
1718451826171191600,21.567191650390626,-1.047377586364746,-2.1843998432159424,0.2885046601295471
1718451826220962600,21.616962646484374,-0.09746603667736053,-0.4899711012840271,0.7350533604621887
1718451826270732500,21.666732666015626,0.972547709941864,-0.7798106670379639,1.5570260286331177
1718451826320503600,21.716503662109375,-2.415156364440918,0.9353650808334351,-0.2949989438056946
1718451826370273500,21.7662734375,-0.6667420268058777,0.09295319020748138,0.5681771636009216
1718451826420043500,21.81604345703125,1.7014960050582886,-0.44348809123039246,0.3819105923175812
1718451826469814500,21.865814453125,0.8524325489997864,-0.34536752104759216,0.4264187514781952
1718451826519584800,21.915584716796875,2.0209102630615234,0.4496343731880188,1.2189905643463135
1718451826569355500,21.96535546875,1.3457149267196655,1.9258707761764526,2.301292896270752
1718451826619125500,22.01512548828125,0.7612267136573792,-0.14501096308231354,0.9268278479576111
1718451826668896500,22.064896484375,0.7425108551979065,2.0291595458984375,1.0285284519195557
1718451826718666500,22.11466650390625,1.0386847257614136,0.4020961821079254,0.5903288125991821
1718451826768436500,22.1644365234375,1.283612608909607,1.0448417663574219,1.0574136972427368
1718451826818207500,22.21420751953125,0.6929988861083984,0.9824920296669006,-0.2663133144378662
1718451826867977700,22.263977783203124,-0.0366324782371521,0.08325883001089096,0.19681580364704132
1718451826917748500,22.31374853515625,-1.0246206521987915,-0.21442092955112457,-1.1485764980316162
1718451826967518500,22.3635185546875,-2.155970335006714,-0.48783859610557556,-2.4947891235351562
1718451827017288400,22.413288330078124,-2.181365728378296,-0.6936999559402466,-1.6599942445755005
1718451827067059500,22.4630595703125,-1.7749651670455933,1.8436106443405151,-2.5237741470336914
1718451827116829200,22.5128291015625,-1.2465767860412598,-1.095738410949707,-0.44557154178619385
1718451827166599200,22.56259912109375,-0.9223452806472778,-1.4002670049667358,-0.338062584400177
1718451827216370400,22.612370361328125,-0.785968005657196,-1.3433830738067627,0.2177468091249466
1718451827266140200,22.66214013671875,0.16775579750537872,0.46980294585227966,1.0712471008300781
1718451827315910400,22.711910400390625,0.8085430860519409,-1.2847468852996826,0.6779145002365112
1718451827365681200,22.76168115234375,-1.4042938947677612,-0.7164646983146667,-1.0736603736877441
1718451827415451400,22.811451416015625,0.5197282433509827,1.8250236511230469,0.33183541893959045
1718451827465222400,22.861222412109374,0.32789111137390137,1.535005807876587,0.3355637490749359
1718451827514992000,22.9109921875,1.4599796533584595,0.7668169736862183,0.9681822657585144
1718451827564762400,22.960762451171874,1.652835726737976,-0.7861538529396057,1.1187175512313843
1718451827614533000,23.010533203125,0.8733522891998291,1.0698933601379395,1.3425476551055908
1718451827664303400,23.060303466796874,1.0077917575836182,-0.017903827130794525,1.3194581270217896
1718451827714073000,23.110072998046874,1.020621418952942,2.1823484897613525,0.951485812664032
1718451827763843300,23.15984326171875,1.194825530052185,0.31972959637641907,0.5374438762664795
1718451827813614300,23.2096142578125,1.2576369047164917,0.7235713005065918,0.7921269536018372
1718451827863384300,23.25938427734375,0.6022947430610657,0.577343761920929,-0.18640479445457458
1718451827913154300,23.309154296875,0.048758089542388916,0.3075699210166931,-0.04158923029899597
1718451827962925300,23.35892529296875,-1.1884710788726807,-0.33397191762924194,-1.4214832782745361
1718451828012695300,23.4086953125,-2.3338613510131836,-1.0324245691299438,-2.5744972229003906
1718451828062465300,23.45846533203125,-2.0937581062316895,0.1299126297235489,-1.6740082502365112
1718451828112236300,23.508236328125,-1.663840889930725,1.2507662773132324,-2.2223143577575684
1718451828162007000,23.558007080078124,-1.2776552438735962,-0.7903040051460266,-0.08501265197992325
1718451828211777000,23.607777099609375,-0.9813560247421265,-1.5961519479751587,-0.27298450469970703
1718451828261547000,23.657547119140624,-0.6694420576095581,-0.7891252040863037,0.5328779220581055
1718451828311318000,23.707318115234376,0.4608626365661621,0.33419743180274963,1.2850526571273804
1718451828361088000,23.757087890625,0.4465334117412567,-2.4998457431793213,-0.4955267012119293
1718451828410858000,23.80685791015625,-1.3528478145599365,-0.2730555832386017,-0.7613705396652222
1718451828460628000,23.8566279296875,1.0578261613845825,0.6800087690353394,0.5703237056732178
1718451828510399000,23.90639892578125,0.1498735547065735,0.46782568097114563,-0.6654453277587891
1718451828560169000,23.9561689453125,2.6608879566192627,-0.430149108171463,1.6113561391830444
1718451828609939200,24.005939208984376,1.0837376117706299,0.4103377163410187,1.4854612350463867
1718451828659709000,24.055708984375,1.07596755027771,-0.5373165011405945,1.325466513633728
1718451828709480000,24.10547998046875,1.128724455833435,-0.04685164615511894,1.2144362926483154
1718451828759250000,24.15525,0.49253949522972107,2.6997978687286377,1.0145329236984253
1718451828809020200,24.205020263671877,1.010188341140747,-0.3095444440841675,0.8090046048164368
1718451828858790000,24.254789794921876,1.2200779914855957,1.1309043169021606,0.5967641472816467
1718451828908561000,24.304560791015625,0.37879678606987,0.8450811505317688,-0.15731185674667358
1718451828958331100,24.3543310546875,-0.19730313122272491,0.2759016752243042,-0.24956755340099335
1718451829008100900,24.404100830078125,-1.0942237377166748,-0.22407755255699158,-1.672016978263855
1718451829057871000,24.45387109375,-1.964730978012085,-1.1774682998657227,-2.924797773361206
1718451829107641000,24.50364111328125,-2.1267752647399902,0.22819645702838898,-1.6565011739730835
1718451829157411800,24.553411865234374,-1.853314757347107,0.9793291687965393,-2.214524507522583
1718451829207181800,24.603181884765625,-1.3539793491363525,-0.4087880849838257,0.10583973675966263
1718451829256951800,24.652951904296874,-1.1947574615478516,-1.6785939931869507,0.019721467047929764
1718451829306722000,24.70272216796875,-0.6830740571022034,-1.610379695892334,0.35027366876602173
1718451829356491800,24.75249169921875,0.4095844626426697,-0.12264849245548248,1.0073461532592773
1718451829406262800,24.8022626953125,0.3605678975582123,-1.0206217765808105,0.39897778630256653
1718451829456033000,24.852032958984374,-1.3025951385498047,-1.0666130781173706,-0.49103543162345886
1718451829505802800,24.901802734375,0.7303224802017212,1.61513352394104,0.9403344392776489
1718451829555573000,24.951572998046874,0.3583468794822693,0.6043219566345215,-0.4854181408882141
1718451829605343000,25.001343017578126,1.1191301345825195,1.0425665378570557,1.4136797189712524
1718451829655113000,25.051113037109374,1.913124442100525,-0.11853330582380295,1.2098942995071411
1718451829704883700,25.1008837890625,1.3266068696975708,1.7285300493240356,2.100917339324951
1718451829754654000,25.150654052734374,1.175464153289795,-0.3385021984577179,1.2294702529907227
1718451829804424000,25.200423828125,0.7211094498634338,2.722470283508301,0.9875168800354004
1718451829854194000,25.25019384765625,1.0182781219482422,0.6018127202987671,0.22185619175434113
1718451829903964000,25.2999638671875,1.1393554210662842,0.9913001656532288,0.8312744498252869
1718451829953734000,25.34973388671875,0.39511752128601074,0.6024550795555115,-0.17271792888641357
1718451830003503900,25.39950390625,-0.09086982160806656,-0.40146031975746155,-0.3625466823577881
1718451830053275000,25.44927490234375,-1.5526607036590576,-0.8785769939422607,-1.6247879266738892
1718451830103044900,25.499044921875,-2.0515356063842773,-1.2004841566085815,-2.7002291679382324
1718451830152814300,25.548814453125,-2.1734321117401123,1.0541014671325684,-1.7587248086929321
1718451830202584300,25.598584228515627,-1.5241038799285889,0.3796328902244568,-1.9702783823013306
1718451830252354300,25.648354248046875,-1.313462495803833,-1.220068097114563,-0.03300446271896362
1718451830302124500,25.69812451171875,-1.2172282934188843,-2.2203216552734375,-0.03407036140561104
1718451830351894300,25.747894287109375,-0.6824554204940796,-1.1278071403503418,0.6635863780975342
1718451830401664500,25.79766455078125,0.3741357922554016,0.24117422103881836,1.4835518598556519
1718451830451434500,25.8474345703125,0.6904661059379578,-0.761239230632782,-0.015943223610520363
1718451830501204500,25.89720458984375,-1.3254061937332153,-0.7483278512954712,-0.7186545729637146
1718451830550975200,25.946975341796875,1.1084682941436768,1.2290809154510498,0.8539780974388123
1718451830600745500,25.996745361328124,0.13038069009780884,0.7135102152824402,-0.38060081005096436
1718451830650515200,26.04651513671875,1.3767322301864624,0.9748608469963074,1.377681016921997
1718451830700285400,26.096285400390624,1.4280014038085938,-0.3950035870075226,0.8875298500061035
1718451830750055400,26.146055419921876,1.0184744596481323,0.09389693289995193,1.4308552742004395
1718451830799825400,26.195825439453124,1.0590059757232666,0.1485370546579361,1.184881567955017
1718451830849595400,26.245595458984376,0.7463668584823608,2.110220432281494,1.0572619438171387
1718451830899365400,26.295365478515624,1.1183102130889893,-0.3532625734806061,0.571278989315033
1718451830949135400,26.34513525390625,1.230356216430664,1.3010538816452026,0.7135908603668213
1718451830998905300,26.3949052734375,0.47513481974601746,0.37380707263946533,-0.11707999557256699
1718451831048675300,26.44467529296875,-0.17131033539772034,0.036301180720329285,-0.4107726514339447
1718451831098445300,26.4944453125,-1.3530269861221313,-1.33074152469635,-1.3748955726623535
1718451831148215600,26.544215576171876,-2.144932270050049,-1.1432241201400757,-2.5361521244049072
1718451831197985500,26.593985595703124,-2.175083637237549,0.3832530975341797,-1.634911298751831
1718451831247755500,26.643755615234376,-1.6851192712783813,0.9846218824386597,-1.823316216468811
1718451831297525800,26.69352587890625,-1.283421277999878,-0.9563327431678772,-0.18875440955162048
1718451831347295500,26.74329541015625,-0.8832849860191345,-2.5404551029205322,-0.06229514256119728
1718451831397066500,26.79306640625,-0.7022544145584106,-1.4497302770614624,0.3364907205104828
1718451831446836700,26.842836669921876,0.3602873980998993,0.7925702929496765,1.2694076299667358
1718451831496606500,26.8926064453125,0.6386381387710571,-1.0808221101760864,0.44350606203079224
1718451831546376700,26.942376708984376,-1.4397799968719482,-0.4037133455276489,-0.9163680076599121
1718451831596146700,26.992146728515625,0.4568881094455719,1.6136716604232788,0.46875470876693726
1718451831645916700,27.041916748046877,0.36692893505096436,0.7384779453277588,0.13285215198993683
1718451831695686700,27.091686767578125,1.463066816329956,0.7746649980545044,1.3654813766479492
1718451831745456600,27.14145654296875,1.526630163192749,-0.2604764401912689,0.9332880973815918
1718451831795226600,27.1912265625,1.1185624599456787,0.3437216877937317,1.4942113161087036
1718451831844996600,27.24099658203125,1.2350704669952393,0.10781489312648773,1.3139634132385254
1718451831894766600,27.2907666015625,0.6797176003456116,2.3933956623077393,0.877531111240387
1718451831944536600,27.34053662109375,1.0061430931091309,0.09956634044647217,0.5453375577926636
1718451831994306600,27.390306640625,1.137751817703247,1.1438300609588623,0.6503820419311523
1718451832044075800,27.44007568359375,0.514529824256897,0.5883586406707764,-0.16292983293533325
1718451832093845500,27.489845458984377,-0.21512532234191895,-0.40921223163604736,-0.2930949926376343
1718451832143615500,27.539615478515625,-1.5811244249343872,-1.0781174898147583,-1.559048056602478
1718451832193385500,27.589385498046877,-1.9391320943832397,-0.9332659840583801,-2.64890456199646
1718451832243155500,27.639155517578125,-2.091705799102783,0.8861324191093445,-1.7245734930038452
1718451832292925400,27.688925537109377,-1.672539234161377,0.44821882247924805,-1.9475716352462769
1718451832342695400,27.7386953125,-1.2260336875915527,-0.6524835228919983,-0.04698954522609711
1718451832392465400,27.78846533203125,-0.9613760113716125,-2.0946004390716553,-0.004621386993676424
1718451832442235400,27.8382353515625,-0.6298375129699707,-1.2564336061477661,0.4712018370628357
1718451832492005400,27.88800537109375,0.34554553031921387,0.5296996235847473,1.3892453908920288
1718451832541775400,27.937775390625,0.22459271550178528,-2.3563027381896973,-0.7248832583427429
1718451832591545300,27.98754541015625,-1.334804654121399,-0.5061085820198059,-0.986534595489502
1718451832641315600,28.037315673828125,1.1525189876556396,0.6708224415779114,-0.9503272771835327
1718451832691085300,28.087085205078125,1.2244904041290283,1.378836989402771,0.3948551416397095
1718451832740855600,28.13685546875,2.206604480743408,0.34767675399780273,1.616719126701355
1718451832790625300,28.186625244140625,1.3417062759399414,0.30499473214149475,1.0173181295394897
1718451832840395500,28.2363955078125,0.7627341747283936,-0.6395710110664368,1.5920194387435913
1718451832890165200,28.286165283203125,1.2151294946670532,1.093101143836975,1.3214648962020874
1718451832939935500,28.335935546875,0.7692017555236816,1.4476685523986816,1.0890270471572876
1718451832989704400,28.385704345703125,0.8172854781150818,0.056341201066970825,0.36438992619514465
1718451833039474400,28.435474365234374,1.089903712272644,0.9574419260025024,0.7307469248771667
1718451833089244400,28.485244384765625,0.5990566611289978,0.035267867147922516,-0.27836698293685913
1718451833139015200,28.53501513671875,-0.07225897908210754,0.3415157198905945,-0.09665259718894958
1718451833188785200,28.58478515625,-1.125897765159607,-0.6632031798362732,-1.4227330684661865
1718451833238555100,28.63455517578125,-2.199423313140869,-0.654641330242157,-2.4466893672943115
1718451833288325000,28.6843251953125,-2.3529951572418213,-0.04570058733224869,-1.4342328310012817
1718451833338095000,28.73409521484375,-1.9082547426223755,0.8014896512031555,-1.836775779724121
1718451833387865000,28.783864990234374,-1.6047139167785645,-1.1116318702697754,0.050601743161678314
1718451833437634300,28.83363427734375,-0.9260192513465881,-2.4774961471557617,-0.18055298924446106
1718451833487404000,28.883404052734374,-0.6088993549346924,-0.8429960608482361,0.24120508134365082
1718451833537174300,28.93317431640625,0.19632591307163239,0.17985279858112335,1.0780197381973267
1718451833586944000,28.982944091796874,1.2112936973571777,-0.7953687906265259,0.9687199592590332
1718451833636714200,29.03271435546875,-1.770025372505188,0.7608634233474731,-0.964226484298706
1718451833686484200,29.082484130859374,0.1850312203168869,0.8233138918876648,0.27367261052131653
1718451833736254200,29.132254150390626,0.9561976194381714,-0.36934158205986023,0.29238811135292053
1718451833786024200,29.182024169921874,0.5022937059402466,0.6631554365158081,0.663928210735321
1718451833835793000,29.23179296875,2.243300676345825,-0.44986483454704285,1.0058691501617432
1718451833885563100,29.281563232421874,1.025606393814087,0.6664918065071106,1.4329981803894043
1718451833935333400,29.33133349609375,1.163794994354248,0.9015825986862183,1.2430400848388672
1718451833985103000,29.38110302734375,1.0809794664382935,1.3249632120132446,0.724307119846344
1718451834034873300,29.430873291015626,0.7070748209953308,1.6030126810073853,0.8234882950782776
1718451834084643000,29.48064306640625,1.2442623376846313,0.5732683539390564,0.8405532240867615
1718451834134411300,29.530411376953126,0.9855525493621826,0.7686055898666382,0.03821149095892906
1718451834184181500,29.580181396484374,0.0872969999909401,0.6843222975730896,0.1073257178068161
1718451834233951200,29.629951171875,-0.45093482732772827,-0.09725287556648254,-1.1005048751831055
1718451834283721500,29.679721435546874,-1.904905080795288,-1.1148838996887207,-2.32309627532959
1718451834333491200,29.7294912109375,-2.1579527854919434,-1.2014485597610474,-1.7698668241500854
1718451834383261400,29.779261474609374,-1.884721279144287,1.1583044528961182,-2.304487943649292
1718451834433030400,29.829030517578126,-1.2704828977584839,-0.5149962306022644,-1.029518723487854
1718451834482800400,29.87880029296875,-1.2749029397964478,-0.7555659413337708,0.05249590054154396
1718451834532570400,29.9285703125,-1.2087864875793457,-1.651344656944275,0.12199880927801132
1718451834582340400,29.97834033203125,-0.20912615954875946,-0.8474893569946289,1.0624548196792603
1718451834632110300,30.0281103515625,0.7440563440322876,-1.4466067552566528,1.2698920965194702
1718451834681879300,30.07787939453125,-0.7686444520950317,0.05819243937730789,-0.42150941491127014
1718451834731649300,30.127649169921874,-0.9149724841117859,-0.15136472880840302,-0.2615261971950531
1718451834781419300,30.177419189453126,1.6838868856430054,0.3208346664905548,1.0531316995620728
1718451834831189500,30.227189453125,0.7846434116363525,-0.7177882790565491,0.6338871717453003
1718451834880959200,30.276959228515626,2.3004860877990723,0.7525030374526978,1.290828824043274
1718451834930728400,30.326728515625,1.362341046333313,0.7424848079681396,1.5862833261489868
1718451834980498400,30.37649853515625,0.9548673033714294,-0.6019610166549683,1.4299108982086182
1718451835030268400,30.426268310546874,0.7182421088218689,2.04852294921875,0.9658843874931335
1718451835080038400,30.476038330078126,0.9159173965454102,0.1453913450241089,0.5881880521774292
1718451835129808600,30.52580859375,1.1370112895965576,1.1017155647277832,0.9302100539207458
1718451835179577900,30.575577880859374,0.9354273676872253,0.6666039228439331,-0.11347389221191406
1718451835229347600,30.62534765625,-0.026218468323349953,0.2702289819717407,0.4118292033672333
1718451835279117800,30.675117919921874,-0.46518123149871826,-0.22399157285690308,-0.9766150116920471
1718451835328887800,30.7248876953125,-2.0174214839935303,-1.303656816482544,-2.0891387462615967
1718451835378656800,30.77465673828125,-2.3736159801483154,-1.3744922876358032,-1.7102115154266357
1718451835428426800,30.8244267578125,-1.998059868812561,1.3627814054489136,-1.9936269521713257
1718451835478196700,30.87419677734375,-1.4355038404464722,-0.647895097732544,-0.31949514150619507
1718451835527966700,30.923966796875,-1.2940864562988281,-1.6688646078109741,-0.40628567337989807
1718451835577737000,30.973737060546874,-0.991792619228363,-1.9643867015838623,0.29771682620048523
1718451835627505700,31.023505615234374,-0.08483555912971497,0.5590997934341431,0.9565704464912415
1718451835677275600,31.073275634765626,0.5411477088928223,-0.8529631495475769,0.9335541725158691
1718451835727046000,31.1230458984375,-1.938058614730835,-0.5629387497901917,-0.3596916198730469
1718451835776815600,31.172815673828126,-0.24519957602024078,0.693540632724762,-0.20910438895225525
1718451835826584800,31.222584716796874,0.43604788184165955,0.28385046124458313,-0.21295732259750366
1718451835876354800,31.272354736328126,1.5821608304977417,0.4485032558441162,1.420067548751831
1718451835926124800,31.322124755859374,2.1528146266937256,-0.2124728560447693,0.6319679021835327
1718451835975893800,31.371893798828125,1.0796760320663452,0.09405963867902756,1.6541764736175537
1718451836025663700,31.421663818359374,0.9074810147285461,0.14025498926639557,1.353826642036438
1718451836075433700,31.471433837890626,0.7673472762107849,1.9290144443511963,1.153257131576538
1718451836125204000,31.521203857421874,1.0048794746398926,0.46688583493232727,0.6594409942626953
1718451836174973000,31.570972900390625,1.1701209545135498,1.2235057353973389,0.6402577757835388
1718451836224743000,31.620742919921874,0.674217164516449,0.7916804552078247,-0.30619701743125916
1718451836274513000,31.670512939453126,0.13019464910030365,0.41684362292289734,0.3447476029396057
1718451836324283100,31.720283203125,-0.2726401388645172,0.03662422299385071,-0.8032425045967102
1718451836374052000,31.770052001953125,-1.7435294389724731,-1.45899498462677,-1.8910871744155884
1718451836423821800,31.81982177734375,-2.2490203380584717,-1.4554388523101807,-1.6909501552581787
1718451836473592000,31.869592041015625,-2.1862921714782715,0.9043383002281189,-1.7826337814331055
1718451836523361000,31.919361083984374,-1.593269944190979,-0.6253980994224548,-0.13945505023002625
1718451836573131000,31.969131103515625,-1.3084434270858765,-0.87857586145401,-0.1390034556388855
1718451836622901000,32.01890087890625,-0.9327920079231262,-2.460549831390381,0.06854715198278427
1718451836672671000,32.0686708984375,-0.15174061059951782,-0.003948066383600235,0.6193761825561523
1718451836722440000,32.11843994140625,1.26918363571167,-0.6682906746864319,1.0981378555297852
1718451836772210200,32.168210205078125,-3.129892110824585,2.0157206058502197,-0.18475447595119476
1718451836821980000,32.21797998046875,-0.45837166905403137,0.5634875297546387,0.5945913791656494
1718451836871748900,32.26774877929687,1.9278717041015625,-1.0849788188934326,0.7698376774787903
1718451836921519000,32.31751904296875,0.7937202453613281,-0.3913272023200989,0.741917073726654
1718451836971288800,32.36728881835938,2.069697141647339,-0.27963152527809143,1.5071520805358887
1718451837021058000,32.41705810546875,1.1872024536132812,1.5926587581634521,1.3246963024139404
1718451837070828000,32.466828125,1.223192572593689,-0.5436345338821411,1.2711073160171509
1718451837120598000,32.51659790039062,0.7745077610015869,2.479017734527588,1.0449985265731812
1718451837170366700,32.56636669921875,0.7857753038406372,0.6479883193969727,0.4602746367454529
1718451837220137000,32.61613696289062,1.1317137479782104,1.0187968015670776,0.9093506336212158
1718451837269907000,32.66590698242187,0.7289615869522095,0.8359304070472717,-0.254374235868454
1718451837319676000,32.71567602539063,-0.008589387871325016,0.2651098668575287,0.31256750226020813
1718451837369446000,32.76544580078125,-1.3090630769729614,-0.3257734477519989,-1.2017844915390015
1718451837419216000,32.8152158203125,-1.9243559837341309,-0.3076378405094147,-2.8830208778381348
1718451837468984800,32.86498486328125,-1.7422622442245483,0.14378885924816132,-1.6690595149993896
1718451837518755000,32.914755126953125,-1.6697990894317627,1.3642147779464722,-2.3403351306915283
1718451837568524800,32.96452490234375,-1.2998744249343872,-0.04513461887836456,-0.3024492561817169
1718451837618294000,33.0142939453125,-0.9803781509399414,-1.375895380973816,-0.17782485485076904
1718451837668064000,33.06406396484375,-0.9013978242874146,-0.8014299869537354,0.2730763852596283
1718451837717834000,33.113833984375,0.02530672214925289,0.28134235739707947,0.9298850297927856
1718451837767603000,33.16360302734375,0.6416956186294556,-1.847216010093689,0.4257819354534149
1718451837817372700,33.21337255859375,-1.486067533493042,-0.06695463508367538,-0.9650291204452515
1718451837867143000,33.26314282226563,0.8191035389900208,1.0149017572402954,0.31509846448898315
1718451837916911900,33.312911865234376,0.21389441192150116,1.4012603759765625,-0.8029219508171082
1718451837966681900,33.36268188476563,2.4316277503967285,1.2107497453689575,1.22283136844635
1718451838016450800,33.412450927734376,1.4915393590927124,-1.1423964500427246,1.264466404914856
1718451838066221000,33.46222094726563,0.9747378826141357,1.2032266855239868,0.9292082190513611
1718451838115990800,33.51199072265625,0.9348397254943848,0.6067497730255127,0.7827790975570679
1718451838165759200,33.56175927734375,0.8501493334770203,2.163594961166382,0.9650322198867798
1718451838215529200,33.611529296875,1.0457022190093994,-0.2502696216106415,0.830091118812561
1718451838265299200,33.66129931640625,1.1813757419586182,0.8780590295791626,0.5324944257736206
1718451838315068200,33.711068115234376,0.9921559691429138,0.8399350643157959,0.1361997276544571
1718451838364838400,33.76083837890625,0.2493223249912262,0.2580052614212036,-0.24088060855865479
1718451838414608100,33.81060815429687,-0.5689272284507751,-0.9303581118583679,-0.7228713631629944
1718451838464377000,33.86037719726563,-2.3656158447265625,-1.7747052907943726,-1.9579498767852783
1718451838514147300,33.91014721679687,-2.1177921295166016,-1.3362618684768677,-1.8112300634384155
1718451838563916300,33.95991625976563,-2.02284574508667,2.205141544342041,-2.324871063232422
1718451838613686300,34.00968627929687,-1.1557884216308594,-0.9762706160545349,-0.6752916574478149
1718451838663456300,34.059456298828124,-1.2701053619384766,-1.368416428565979,-0.46225517988204956
1718451838713225500,34.1092255859375,-1.0104312896728516,-1.6248202323913574,0.3935052454471588
1718451838762995200,34.1589951171875,-0.13041195273399353,0.012469008564949036,0.9646455645561218
1718451838812764200,34.20876416015625,1.240470290184021,-0.6841031908988953,1.7681529521942139
1718451838862534400,34.258534423828124,-2.913846969604492,1.9398131370544434,-0.3631928265094757
1718451838912304000,34.30830419921875,-0.5890969634056091,0.1931593269109726,0.4493456482887268
1718451838962073300,34.3580732421875,1.890920639038086,-0.8479572534561157,0.679468035697937
1718451839011843300,34.40784326171875,0.8493636250495911,-0.48931413888931274,0.6291824579238892
1718451839061612300,34.4576123046875,2.124558210372925,0.43020614981651306,1.241032600402832
1718451839111382300,34.50738232421875,1.240743637084961,1.7062716484069824,2.0854830741882324
1718451839161151200,34.55715112304687,0.9689168334007263,-0.15825599431991577,0.9441365003585815
1718451839210921200,34.60692114257812,0.7947844862937927,2.5946574211120605,0.8962759971618652
1718451839260691200,34.656691162109375,0.8347313404083252,0.5403043031692505,0.5550422072410583
1718451839310460400,34.70646044921875,1.2942075729370117,1.1014137268066406,0.8153946399688721
1718451839360230100,34.756230224609375,0.8181070685386658,0.5528075695037842,-0.11475478857755661
1718451839409999400,34.80599926757812,-0.14047949016094208,0.34124526381492615,0.1457175612449646
1718451839459769300,34.855769287109375,-1.049728274345398,0.27063149213790894,-1.6440811157226562
1718451839509538000,34.9055380859375,-2.6184613704681396,-0.5657123327255249,-2.7551674842834473
1718451839559308300,34.955308349609375,-2.4604599475860596,0.03786991536617279,-1.6742914915084839
1718451839609078300,35.00507836914063,-1.90456223487854,1.4885317087173462,-2.5880327224731445
1718451839658847200,35.05484716796875,-1.2311242818832397,-1.4730560779571533,0.10739337652921677
1718451839708617200,35.1046171875,-1.0740373134613037,-1.2206438779830933,-0.25746020674705505
1718451839758386400,35.154386474609375,-0.6874983310699463,-0.9023252129554749,0.4452458620071411
1718451839808156200,35.20415625,0.5062564611434937,-0.06104745343327522,1.1931912899017334
1718451839857925000,35.25392504882812,-0.07541878521442413,-1.9448459148406982,-0.26979559659957886
1718451839907695400,35.3036953125,-1.0771840810775757,-1.37728750705719,-0.814024806022644
1718451839957465000,35.353465087890626,1.2043904066085815,1.4727481603622437,0.2104102522134781
1718451840007234300,35.403234375,0.36950749158859253,1.6307523250579834,-0.39595264196395874
1718451840057004300,35.45300439453125,2.2202885150909424,0.48591670393943787,1.1657767295837402
1718451840106773500,35.5027734375,1.4521613121032715,-0.8846343159675598,1.0133739709854126
1718451840156544300,35.55254418945312,1.180078387260437,2.4183032512664795,1.719753384590149
1718451840206313200,35.60231323242188,1.0926650762557983,0.02254595048725605,1.0595403909683228
1718451840256083200,35.65208325195312,0.9600382447242737,2.512941598892212,1.170713186264038
1718451840305852200,35.70185205078125,1.030359148979187,0.18388523161411285,0.4192489981651306
1718451840355622100,35.7516220703125,1.198682427406311,1.2345818281173706,0.6231147050857544
1718451840405391000,35.80139111328125,0.7488147020339966,0.30707424879074097,0.07243989408016205
1718451840455161000,35.8511611328125,0.0802711769938469,0.16178403794765472,-0.33605027198791504
1718451840504931300,35.900931396484374,-1.025124430656433,-0.36490437388420105,-1.366986632347107
1718451840554700000,35.95069995117188,-2.163547992706299,-0.5358206033706665,-2.72419810295105
1718451840604470000,36.00046997070312,-2.4563310146331787,-0.27796316146850586,-1.4457194805145264
1718451840654239200,36.0502392578125,-1.911255955696106,1.3702267408370972,-2.3556973934173584
1718451840704009000,36.10000903320312,-1.2624152898788452,-0.9933615922927856,0.22667604684829712
1718451840753778200,36.14977807617188,-1.0982286930084229,-1.7093192338943481,-0.23258554935455322
1718451840803548200,36.19954809570312,-0.8093311786651611,-1.5308245420455933,0.5447762608528137
1718451840853317000,36.24931713867188,0.3670028746128082,0.09393682330846786,1.1122620105743408
1718451840903087000,36.29908715820312,0.2860943078994751,-1.5360957384109497,0.10364676266908646
1718451840952856000,36.34885595703125,-1.2038192749023438,-1.4909850358963013,-0.9198461174964905
1718451841002626300,36.39862622070312,0.8380609750747681,1.9297820329666138,0.5676680207252502
1718451841052395000,36.44839501953125,0.13091155886650085,1.0117019414901733,-0.06603613495826721
1718451841102165200,36.49816528320312,1.4844982624053955,0.926092267036438,1.2989906072616577
1718451841151934200,36.54793432617188,1.7619597911834717,-0.744755744934082,0.922981858253479
1718451841201704000,36.59770385742188,1.2685770988464355,2.5071957111358643,2.3030240535736084
1718451841251473000,36.647472900390625,1.0097576379776,0.015024165622889996,0.951000452041626
1718451841301243100,36.6972431640625,0.874663770198822,2.5878844261169434,1.2267085313796997
1718451841351012000,36.74701220703125,1.1800483465194702,0.6728255748748779,0.4185377061367035
1718451841400782000,36.79678198242188,1.20805025100708,1.047444224357605,0.5645310878753662
1718451841450551000,36.846551025390625,0.4487608075141907,0.45755428075790405,0.10202502459287643
1718451841500321000,36.896321044921876,-0.07652857154607773,-0.389676570892334,-0.514162003993988
1718451841550090000,36.946090087890624,-1.4797132015228271,-0.8445137739181519,-1.6562379598617554
1718451841599860000,36.99585986328125,-2.171891450881958,-1.030720591545105,-2.6051976680755615
1718451841649629200,37.045629150390624,-2.605720043182373,0.9743968844413757,-1.703966498374939
1718451841699399000,37.09539892578125,-1.6998852491378784,1.4948571920394897,-2.168792486190796
1718451841749168000,37.145168212890624,-1.1595393419265747,-1.74127197265625,0.2674012780189514
1718451841798938000,37.194938232421876,-0.8520501255989075,-1.9126474857330322,-0.271467924118042
1718451841848707000,37.24470703125,-0.6017586588859558,-0.65818190574646,0.47886422276496887
1718451841898477000,37.29447705078125,0.6683576703071594,-0.0766676813364029,1.3697713613510132
1718451841948246000,37.34424609375,-1.1651633977890015,-1.2319316864013672,-0.49389979243278503
1718451841998016000,37.39401611328125,-0.9242836236953735,-0.5283849835395813,-0.3336387574672699
1718451842047785000,37.44378491210937,2.306891679763794,0.9796863794326782,0.30095112323760986
1718451842097555200,37.49355517578125,0.23609916865825653,0.6017520427703857,-0.7538933157920837
1718451842147323600,37.54332373046875,1.8282591104507446,1.1099965572357178,1.3601998090744019
1718451842197093600,37.59309375,1.4983729124069214,-0.6452314853668213,0.8497282862663269
1718451842246862600,37.64286254882813,1.0339117050170898,1.1647344827651978,1.4732561111450195
1718451842296632600,37.69263256835937,1.0827765464782715,0.7708747386932373,0.9228983521461487
1718451842346401800,37.74240185546875,0.9110088348388672,2.4945669174194336,1.0730113983154297
1718451842396171500,37.79217163085937,1.337652325630188,0.3297165334224701,0.7603605389595032
1718451842445940700,37.84194067382813,1.0305466651916504,0.7043064832687378,0.058223847299814224
1718451842495710700,37.89171069335937,0.18047140538692474,0.28082284331321716,0.300722599029541
1718451842545479400,37.9414794921875,-0.461482971906662,-0.43450701236724854,-0.9193984866142273
1718451842595248600,37.99124853515625,-2.040422201156616,-1.1524903774261475,-2.1641149520874023
1718451842645018600,38.0410185546875,-2.1834967136383057,-1.1149446964263916,-1.8002276420593262
1718451842694787800,38.090787841796875,-2.4712412357330322,1.947156548500061,-2.3745157718658447
1718451842744557600,38.1405576171875,-1.321628212928772,-0.14798438549041748,-0.5731101632118225
1718451842794326500,38.19032641601562,-1.1971869468688965,-1.357055902481079,-0.3784637749195099
1718451842844096800,38.2400966796875,-0.6671772003173828,-1.9936516284942627,0.19300751388072968
1718451842893865500,38.28986547851562,-0.06211341917514801,-0.0063512325286865234,0.8299434781074524
1718451842943635700,38.3396357421875,1.0989538431167603,-1.0807867050170898,1.310782551765442
1718451842993404700,38.38940478515625,-3.569547653198242,-0.29630139470100403,-0.7093652486801147
1718451843043174700,38.439174560546874,0.09532343596220016,0.7544575333595276,0.6968927383422852
1718451843092943600,38.48894360351562,0.631362795829773,-0.2503618597984314,-0.2518218159675598
1718451843142712800,38.538712890625,1.5483896732330322,0.47914770245552063,1.0623424053192139
1718451843192482800,38.58848291015625,1.9494290351867676,-0.29569393396377563,0.8854382634162903
1718451843242251800,38.63825170898438,1.1995011568069458,0.13206569850444794,1.5085054636001587
1718451843292021800,38.68802172851562,1.0381050109863281,0.2617337703704834,1.4746071100234985
1718451843341790700,38.73779077148438,1.0541458129882812,1.4009779691696167,1.1685594320297241
1718451843391560700,38.78756079101562,1.1048821210861206,0.7462466359138489,0.8085528612136841
1718451843441329700,38.83732958984375,1.337791085243225,1.1166651248931885,0.9976405501365662
1718451843491098600,38.8870986328125,0.6757155656814575,0.5077981948852539,-0.31889480352401733
1718451843540868900,38.93686889648438,0.005252490751445293,0.1469346135854721,-0.006696454714983702
1718451843590637600,38.98663745117187,-1.0998858213424683,-0.2747495770454407,-1.2243620157241821
1718451843640407800,39.03640771484375,-2.1393887996673584,-0.9804971218109131,-2.823754072189331
1718451843690176800,39.0861767578125,-2.3942127227783203,-0.3677675426006317,-1.5734118223190308
1718451843739946800,39.13594677734375,-1.8353888988494873,1.5625123977661133,-2.3253767490386963
1718451843789715700,39.1857158203125,-1.3429721593856812,-0.8413185477256775,0.18234556913375854
1718451843839484700,39.23548461914063,-1.1288913488388062,-1.8412065505981445,-0.3042369782924652
1718451843889255000,39.2852548828125,-0.8022961020469666,-1.4989670515060425,0.48646605014801025
1718451843939023600,39.33502368164063,0.4192217290401459,0.06717721372842789,1.1794778108596802
1718451843988793900,39.3847939453125,0.19014400243759155,-2.037245988845825,-0.48215317726135254
1718451844038562800,39.43456274414063,-1.241417646408081,-0.565770149230957,-0.5079267621040344
1718451844088331800,39.484331787109376,1.518294334411621,0.6548078060150146,0.2171490341424942
1718451844138101500,39.5341015625,0.8189019560813904,1.5316280126571655,-0.5612914562225342
1718451844187870700,39.58387060546875,2.567776918411255,0.009056327864527702,1.3007577657699585
1718451844237640700,39.633640625,1.2496646642684937,0.18696025013923645,1.3497322797775269
1718451844287409700,39.68340966796875,0.8817475438117981,-0.37373608350753784,1.7149577140808105
1718451844337178600,39.7331787109375,1.1191846132278442,0.3773137331008911,1.2996594905853271
1718451844386948600,39.782948486328124,1.0161643028259277,1.8302357196807861,1.301729440689087
1718451844436717800,39.8327177734375,1.2712796926498413,0.0360543467104435,0.5613570213317871
1718451844486486800,39.88248681640625,0.9610063433647156,1.0267258882522583,0.6614176034927368
1718451844536256500,39.93225659179687,0.4352652430534363,0.2855938971042633,0.01940748654305935
1718451844586025700,39.98202563476563,-0.16203510761260986,-0.210439994931221,-0.9109892845153809
1718451844635795700,40.03179565429687,-1.5797083377838135,-1.1006046533584595,-1.8658809661865234
1718451844685564400,40.081564453125,-2.1869211196899414,-1.2693347930908203,-2.117082118988037
1718451844735333600,40.131333740234375,-2.676060199737549,0.9849135279655457,-1.5647025108337402
1718451844785103600,40.181103515625,-1.5330108404159546,0.8143386244773865,-1.4393125772476196
1718451844834872800,40.230872802734375,-1.2596417665481567,-1.6665568351745605,0.16381651163101196
1718451844884641500,40.2806416015625,-0.8690757155418396,-2.5637154579162598,-0.006516830530017614
1718451844934411500,40.33041162109375,-0.4715958535671234,-0.457245409488678,0.7371816039085388
1718451844984180700,40.3801806640625,0.8701322078704834,-0.36504116654396057,1.4355915784835815
1718451845033949700,40.42994970703125,-2.6727426052093506,-0.3701763451099396,-0.22418569028377533
1718451845083719700,40.4797197265625,-0.7771855592727661,-0.13170957565307617,0.25254324078559875
1718451845133488000,40.529488037109374,2.6925716400146484,-0.6029126048088074,0.5894749760627747
1718451845183258000,40.579258056640626,0.3900327980518341,-0.48387494683265686,-0.6800428628921509
1718451845233027300,40.62902734375,2.061962604522705,1.0530683994293213,1.2723751068115234
1718451845282796000,40.67879614257812,1.4540578126907349,-1.523571252822876,0.9848435521125793
1718451845332566000,40.72856591796875,0.9723044037818909,0.6281227469444275,1.3704842329025269
1718451845382335200,40.77833520507812,0.8630211353302002,0.7653836607933044,1.1264443397521973
1718451845432104200,40.82810424804688,0.864597737789154,1.5540649890899658,1.1854699850082397
1718451845481874200,40.87787426757812,1.132926106452942,0.10428054630756378,0.7005301713943481
1718451845531643100,40.92764306640625,0.9381417036056519,0.6551452279090881,0.3543158173561096
1718451845581412000,40.977412109375,0.31694185733795166,0.5737951993942261,0.11007129400968552
1718451845631181300,41.02718139648437,-0.10532377660274506,-0.26935717463493347,-0.6163241863250732
1718451845680951000,41.07695092773437,-1.6063549518585205,-1.119295597076416,-1.5450350046157837
1718451845730720000,41.12671997070313,-2.048792600631714,-1.0293205976486206,-2.4314634799957275
1718451845780489200,41.1764892578125,-2.3679418563842773,0.615233302116394,-1.6154592037200928
1718451845830259200,41.22625927734375,-1.653912901878357,0.6204574108123779,-1.9270679950714111
1718451845880028200,41.276028076171876,-1.159071683883667,-1.525817632675171,0.19444048404693604
1718451845929797000,41.325797119140624,-0.9534037113189697,-2.0838124752044678,-0.27536287903785706
1718451845979567000,41.375567138671876,-0.5311573147773743,-0.43371331691741943,0.48890382051467896
1718451846029336300,41.42533642578125,0.6869786977767944,0.11566919088363647,1.1238820552825928
1718451846079105000,41.47510498046875,-0.7954652905464172,-0.6683216094970703,-0.347630113363266
1718451846128875000,41.524875,-0.9869586229324341,-0.7457540035247803,-0.31221333146095276
1718451846178645000,41.57464501953125,1.635428547859192,1.083426833152771,0.1926470398902893
1718451846228414000,41.6244140625,0.41331878304481506,1.5445185899734497,-0.7598326802253723
1718451846278184000,41.674183837890624,2.310460329055786,0.4695914685726166,1.2595751285552979
1718451846327953200,41.723953125,1.4584722518920898,-1.107949137687683,0.7315201759338379
1718451846377722000,41.77372216796875,1.0338126420974731,1.4821710586547852,1.5036389827728271
1718451846427491000,41.823490966796875,0.9740079641342163,0.08491236716508865,1.0500468015670776
1718451846477261000,41.87326098632813,0.8347832560539246,2.0075554847717285,1.23805570602417
1718451846527030000,41.923030029296875,1.2070317268371582,-0.20977622270584106,0.6086894869804382
1718451846576799000,41.97279907226562,1.1936017274856567,0.9971715807914734,0.7472918629646301
1718451846626569000,42.02256884765625,0.5646997094154358,0.3543006479740143,-0.3113856315612793
1718451846676338000,42.072337890625,0.02622959576547146,-0.23079022765159607,-0.19945700466632843
1718451846726107100,42.12210717773438,-1.0570440292358398,-0.5125773549079895,-1.1791490316390991
1718451846775877000,42.17187719726562,-2.110823392868042,-0.5558195114135742,-2.6541359424591064
1718451846825645800,42.221645751953126,-2.3844807147979736,-0.4360046684741974,-1.458450198173523
1718451846875415000,42.2714150390625,-1.8675445318222046,1.4355262517929077,-2.1141512393951416
1718451846925184000,42.32118408203125,-1.28360116481781,-1.4209015369415283,-0.0036514485254883766
1718451846974954000,42.3709541015625,-1.223007321357727,-1.887879490852356,-0.0855722650885582
1718451847024723000,42.42072290039062,-0.9251304864883423,-1.8158951997756958,0.5828109979629517
1718451847074492000,42.47049194335938,0.1367977112531662,0.21462392807006836,1.1430695056915283
1718451847124260900,42.5202607421875,0.8187458515167236,-1.4794124364852905,0.38461706042289734
1718451847174030000,42.57003002929687,-1.5747358798980713,-0.5737276077270508,-0.8393874168395996
1718451847223799300,42.61979931640625,0.5039130449295044,1.1963545083999634,0.47478342056274414
1718451847273568300,42.669568359375,0.17242485284805298,1.1579859256744385,-0.4752507209777832
1718451847323338200,42.71933813476563,2.1809310913085938,0.2479788362979889,1.2895416021347046
1718451847373107200,42.76910717773438,1.559815526008606,-0.5624493956565857,0.7821490168571472
1718451847422876200,42.818876220703125,1.0336698293685913,1.298911452293396,1.626917839050293
1718451847472645400,42.86864526367187,1.0006047487258911,0.10796293616294861,1.0226176977157593
1718451847522415000,42.9184150390625,0.9453513026237488,2.027174711227417,1.1381702423095703
1718451847572184000,42.96818408203125,1.0998353958129883,0.006335965357720852,0.6011481881141663
1718451847621953300,43.01795336914063,1.2465009689331055,1.1021162271499634,0.7506914138793945
1718451847671722200,43.06772216796875,0.5800731182098389,0.40383201837539673,-0.2017957866191864
1718451847721492200,43.1174921875,-0.016240665689110756,-0.0018515128176659346,-0.2648021876811981
1718451847771261200,43.16726123046875,-1.137655258178711,-0.3362245261669159,-1.3840482234954834
1718451847821030100,43.21703002929687,-2.0698177814483643,-0.7051090598106384,-2.6949307918548584
1718451847870799000,43.26679907226563,-2.4738619327545166,-0.03628002107143402,-1.4551836252212524
1718451847920569000,43.31656909179687,-1.7196574211120605,0.9519364833831787,-2.20745849609375
1718451847970338000,43.36633813476563,-1.3130689859390259,-1.1854044198989868,0.2355501651763916
1718451848020107300,43.416107177734375,-1.0735801458358765,-1.7931194305419922,-0.17062433063983917
1718451848069876200,43.46587622070312,-0.832854688167572,-1.5627784729003906,0.5669662356376648
1718451848119646000,43.51564599609375,0.29084616899490356,0.15351396799087524,1.0723741054534912
1718451848169415200,43.56541528320312,0.081088125705719,-1.6438924074172974,0.20336118340492249
1718451848219184400,43.61518432617188,-0.9302412271499634,-0.9889456629753113,-0.48337697982788086
1718451848268953300,43.664953369140626,0.7618114948272705,1.4168857336044312,0.6955685019493103
1718451848318723300,43.71472338867188,-0.27051079273223877,1.010391354560852,-0.9142652153968811
1718451848368492300,43.7644921875,2.0521085262298584,0.7462345957756042,1.3078621625900269
1718451848418261200,43.81426123046875,1.640660285949707,-0.740885317325592,0.5396626591682434
1718451848468030200,43.8640302734375,1.202242136001587,1.5271695852279663,2.0062456130981445
1718451848517800400,43.913800537109374,0.9004075527191162,-0.10078758746385574,1.055403470993042
1718451848567569200,43.96356909179688,0.8949546217918396,2.435776472091675,1.2413523197174072
1718451848617338400,44.01333837890625,1.1836817264556885,0.21906264126300812,0.46956440806388855
1718451848667107300,44.063107421875,1.078597903251648,1.0580227375030518,0.549877405166626
1718451848716876300,44.11287622070312,0.43849366903305054,0.5228652954101562,-0.04514945298433304
1718451848766646300,44.16264624023437,-0.07906419038772583,-0.30023354291915894,-0.47230276465415955
1718451848816415200,44.21241528320313,-1.685010552406311,-0.9181093573570251,-1.6257243156433105
1718451848866184200,44.26218408203125,-2.2645912170410156,-1.1903542280197144,-2.6382718086242676
1718451848915953400,44.311953369140625,-2.319118022918701,1.0213861465454102,-1.832863211631775
1718451848965722400,44.36172241210937,-1.610885739326477,1.314408302307129,-1.9599347114562988
1718451849015492000,44.4114921875,-1.293632984161377,-1.2393667697906494,0.4572676718235016
1718451849065261300,44.46126123046875,-1.0943078994750977,-1.8629577159881592,0.08064287155866623
1718451849115030300,44.5110302734375,-0.4192031919956207,-0.8320160508155823,0.6610087752342224
1718451849164799500,44.560799560546876,0.8633869290351868,-0.5096153616905212,1.3067805767059326
1718451849214568400,44.610568359375,-2.2361299991607666,-0.06630590558052063,0.11787128448486328
1718451849264338400,44.66033837890625,-0.9062507152557373,-0.6163098812103271,0.1261206567287445
1718451849314107400,44.710107421875,1.7368146181106567,0.438913494348526,0.25618425011634827
1718451849363876400,44.75987646484375,0.7451426386833191,0.6765880584716797,-0.08830415457487106
1718451849413645600,44.8096455078125,2.5828659534454346,0.5012226104736328,1.1027480363845825
1718451849463414500,44.85941455078125,1.1936118602752686,-0.30518579483032227,1.3865857124328613
1718451849513184300,44.909184326171875,0.9139361381530762,0.34569600224494934,1.349800944328308
1718451849562953500,44.95895336914062,0.9551230072975159,0.5077590942382812,1.0433741807937622
1718451849612722400,45.00872241210938,0.886197030544281,2.0162854194641113,0.920339822769165
1718451849662491400,45.058491455078126,1.1257613897323608,0.5725725889205933,0.5298171043395996
1718451849712260600,45.108260498046874,1.0498286485671997,1.2323497533798218,0.2214072197675705
1718451849762030300,45.1580302734375,0.28055304288864136,0.5441056489944458,0.27617135643959045
1718451849811799600,45.207799560546874,-0.016596747562289238,-0.01784108206629753,-0.48973774909973145
1718451849861568500,45.25756860351562,-1.6421058177947998,-0.9308273196220398,-1.5940499305725098
1718451849911337500,45.30733740234375,-2.0359737873077393,-1.6782070398330688,-2.4890613555908203
1718451849961106400,45.3571064453125,-2.09912109375,1.286868929862976,-2.032283306121826
1718451850010876400,45.40687646484375,-1.3907828330993652,0.38229361176490784,-1.875540018081665
1718451850060645400,45.456645263671874,-1.2284047603607178,-1.0873713493347168,0.09585568308830261
1718451850110414600,45.50641455078125,-1.1278948783874512,-2.083177328109741,-0.09553498774766922
1718451850160183800,45.55618383789062,-0.5039937496185303,-0.20709626376628876,0.6796551942825317
1718451850209952800,45.60595288085938,0.8201023936271667,-0.30317938327789307,1.3438183069229126
1718451850259722000,45.655721923828125,-2.5716617107391357,-0.6165889501571655,-0.4602801501750946
1718451850309492000,45.70549194335938,-0.8082552552223206,-0.32145753502845764,-0.1092756986618042
1718451850359260700,45.7552607421875,2.333043336868286,1.0910247564315796,0.1929677426815033
1718451850409030000,45.80502978515625,0.19384796917438507,0.6488375663757324,-0.9384822845458984
1718451850458798800,45.854798828125,1.9345417022705078,0.4404296576976776,1.4764809608459473
1718451850508567800,45.90456787109375,1.548048973083496,-1.1032047271728516,0.7130188941955566
1718451850558337000,45.9543369140625,0.9941840767860413,1.2659475803375244,1.7173361778259277
1718451850608106000,46.00410595703125,1.1765767335891724,0.16368205845355988,0.9996383786201477
1718451850657875700,46.05387573242187,0.9434353113174438,2.406186819076538,1.224985957145691
1718451850707645000,46.10364501953125,0.9530261754989624,0.1644338220357895,0.3358232080936432
1718451850757414000,46.153413818359375,1.022391676902771,1.1189684867858887,0.6746716499328613
1718451850807182800,46.20318286132812,0.49558284878730774,0.6225301623344421,-0.16999194025993347
1718451850856952000,46.2529521484375,-0.016230570152401924,-0.07109159976243973,-0.35860124230384827
1718451850906720800,46.302720703125,-1.0674831867218018,-0.3709789514541626,-1.4381545782089233
1718451850956491000,46.35249096679688,-2.1937947273254395,-0.8696436285972595,-2.668726682662964
1718451851006260000,46.40226000976563,-2.398364305496216,0.4576656222343445,-1.601502537727356
1718451851056029000,46.45202880859375,-1.7147408723831177,0.7804507613182068,-2.2798967361450195
1718451851105798000,46.5017978515625,-1.115143060684204,1.052575945854187,0.7622124552726746
1718451851155566600,46.551566650390626,-1.2269113063812256,-2.485149621963501,-0.14300280809402466
1718451851205335800,46.601335693359374,-0.7302687168121338,-1.0288376808166504,0.6204621195793152
1718451851255104800,46.65110473632812,0.4915488064289093,0.1851685792207718,1.394608497619629
1718451851304873700,46.70087377929688,0.4074084460735321,-2.3721542358398438,-0.8443441390991211
1718451851354643700,46.75064379882812,-1.2715400457382202,-0.9374721646308899,-0.776340901851654
1718451851404412700,46.80041259765625,0.9776108860969543,1.6130528450012207,0.9907991886138916
1718451851454181600,46.850181640625,-0.3189827799797058,0.8128928542137146,0.30727532505989075
1718451851503950800,46.89995092773437,0.9974432587623596,0.5828755497932434,1.0478123426437378
1718451851553719800,46.9497197265625,1.9323197603225708,0.04366463050246239,0.5480511784553528
1718451851603488800,46.99948876953125,1.200709581375122,0.6331736445426941,2.4719901084899902
1718451851653257700,47.0492578125,0.7910033464431763,0.16222888231277466,1.156445026397705
1718451851703026700,47.09902661132813,0.8319981694221497,2.1872358322143555,1.0257283449172974
1718451851752795600,47.148795654296876,1.0778909921646118,0.7861543297767639,0.5810979604721069
1718451851802566000,47.19856591796875,1.1657706499099731,1.146038293838501,0.5432085394859314
1718451851852334800,47.2483349609375,0.6664127707481384,0.31110280752182007,0.1032150611281395
1718451851902103600,47.298103515625,0.22749744355678558,0.1903688907623291,0.28501561284065247
1718451851951872800,47.34787280273437,-0.6607159972190857,-0.09587597101926804,-1.149648904800415
1718451852001641700,47.39764184570313,-2.090447425842285,-0.6314589381217957,-2.595377206802368
1718451852051410700,47.44741064453125,-2.5771334171295166,-1.2144110202789307,-1.8582395315170288
1718451852101180000,47.49717993164062,-1.9112257957458496,1.4428067207336426,-1.9758728742599487
1718451852150949000,47.54694921875,-1.62340247631073,-1.5050472021102905,-0.573647677898407
1718451852200717800,47.5967177734375,-1.3894977569580078,-2.1267290115356445,-0.2927379012107849
1718451852250488000,47.64648803710938,-1.0103038549423218,-1.7257161140441895,0.1988089680671692
1718451852300257000,47.69625708007813,0.0585414282977581,-0.12200629711151123,1.2803698778152466
1718451852350026000,47.74602587890625,1.6682041883468628,0.4696713984012604,2.4020068645477295
1718451852399795000,47.795794921875,-3.5386788845062256,-0.4533747732639313,-0.6407417058944702
1718451852449564000,47.84556396484375,-0.5945948362350464,1.5315700769424438,0.15549762547016144
1718451852499332900,47.895332763671874,1.6135270595550537,-1.0089951753616333,0.30272501707077026
1718451852549101800,47.94510180664062,0.9382721185684204,0.33564627170562744,0.9606197476387024
1718451852598871000,47.99487109375,1.9513790607452393,-0.42651692032814026,0.9327025413513184
1718451852648640000,48.044639892578125,1.0089421272277832,0.8443499803543091,1.911358118057251
1718451852698409000,48.09440893554687,0.9187825322151184,0.4862883687019348,1.269193172454834
1718451852748178000,48.14417797851563,0.9596565961837769,2.0360233783721924,0.8411456346511841
1718451852797948000,48.19394799804687,0.9721034169197083,0.5793978571891785,0.6039639711380005
1718451852847716900,48.243716796875,1.2949925661087036,0.6759374737739563,0.9607184529304504
1718451852897486000,48.29348608398438,0.8131119012832642,0.5417205691337585,-0.02346348762512207
1718451852947254800,48.3432548828125,0.1674252599477768,0.4774041473865509,0.15181757509708405
1718451852997023700,48.39302368164063,-0.3494202792644501,-0.08397211134433746,-0.6550294160842896
1718451853046793000,48.44279296875,-1.7159703969955444,-1.2248668670654297,-2.2673659324645996
1718451853096562000,48.49256201171875,-2.2637133598327637,-1.448808193206787,-1.8485995531082153
1718451853146330000,48.542330078125,-2.1251790523529053,1.4969708919525146,-2.0243849754333496
1718451853196099300,48.592099365234375,-1.1732007265090942,-0.3158777058124542,-0.9719133973121643
1718451853245868300,48.64186840820312,-1.2030001878738403,-1.142722725868225,-0.06405208259820938
1718451853295637200,48.69163720703125,-0.9392178058624268,-2.155874013900757,0.23332680761814117
1718451853345406200,48.74140625,-0.3335860073566437,0.10834749042987823,0.7213759422302246
1718451853395175200,48.79117504882812,0.9482423067092896,-0.4187346398830414,1.2996772527694702
1718451853444944100,48.84094409179688,-1.642248511314392,-0.42922428250312805,-0.10613555461168289
1718451853494713000,48.890713134765626,-0.9874535202980042,-0.2494509518146515,0.09320373088121414
1718451853544482300,48.940482421875,2.054920196533203,0.219131737947464,0.6347997784614563
1718451853594251300,48.99025122070312,0.1393689513206482,-0.40467917919158936,-0.8384919166564941
1718451853644021200,49.040021240234374,2.0506303310394287,0.929100751876831,1.229478359222412
1718451853693790200,49.08979028320312,1.2366242408752441,-2.314157485961914,1.07461678981781
1718451853743559200,49.13955908203125,0.6734941601753235,0.4177718460559845,1.2338756322860718
1718451853793328400,49.189328369140625,0.7584354877471924,0.9259960651397705,1.1643691062927246
1718451853843097000,49.23909716796875,1.0565615892410278,0.9485617280006409,0.9898430705070496
1718451853892866000,49.28886596679688,1.201074481010437,0.5570730566978455,0.6691586375236511
1718451853942635000,49.338635009765625,0.7150263786315918,0.6091241240501404,0.05861520767211914
1718451853992404200,49.388404296875,0.24953678250312805,0.731801450252533,0.27602702379226685
1718451854042173200,49.43817309570313,-0.27617618441581726,-0.2815980315208435,-0.5954568982124329
1718451854091942100,49.487942138671876,-1.6600831747055054,-1.2311930656433105,-1.8060849905014038
1718451854141711400,49.53771142578125,-2.14475417137146,-1.4313870668411255,-2.1098201274871826
1718451854191480000,49.58747998046875,-2.1773738861083984,1.0645655393600464,-1.6609054803848267
1718451854241249300,49.63724926757813,-1.3905611038208008,0.22311720252037048,-1.3684918880462646
1718451854291018200,49.687018310546875,-1.1884055137634277,-1.2421716451644897,0.15697258710861206
1718451854340787200,49.736787109375,-0.8943371772766113,-2.1368134021759033,0.054412178695201874
1718451854390556400,49.78655639648437,-0.4672345221042633,-0.37369367480278015,0.7339807152748108
1718451854440325400,49.83632543945313,0.8804125189781189,-0.11570211499929428,1.2964516878128052
1718451854490094000,49.88609399414062,-2.150406837463379,-1.6788438558578491,-0.6807290315628052
1718451854539863300,49.93586328125,-0.9760616421699524,0.7426599264144897,-0.19138917326927185
1718451854589632300,49.98563232421875,1.748626947402954,-0.44846582412719727,-0.4161648750305176
1718451854639401200,50.035401123046874,1.000978708267212,1.2223268747329712,-0.08627419173717499
1718451854689170400,50.08517041015625,2.3665707111358643,-0.4851688742637634,1.2284046411514282
1718451854738939400,50.134939453125,1.372117042541504,0.1415850669145584,1.5842711925506592
1718451854788708000,50.1847080078125,0.7304713129997253,-0.22247888147830963,1.612126350402832
1718451854838477300,50.234477294921874,0.8778878450393677,0.8396987318992615,1.2060086727142334
1718451854888246300,50.28424633789062,0.8919448852539062,1.5375131368637085,1.1986299753189087
1718451854938015200,50.33401513671875,1.127724289894104,0.07469536364078522,0.5556586384773254
1718451854987784200,50.3837841796875,1.0092027187347412,0.8971660137176514,0.5806106328964233
1718451855037553400,50.43355346679687,0.47232064604759216,0.3657292127609253,0.08263949304819107
1718451855087322000,50.483322021484376,0.1992480456829071,0.03635253757238388,-0.24331295490264893
1718451855137091000,50.533091064453124,-0.9762727618217468,-0.566612720489502,-1.1569466590881348
1718451855186860800,50.58286083984375,-2.0196542739868164,-0.6433392763137817,-2.430093765258789
1718451855236629800,50.63262963867187,-2.1713333129882812,-0.8179944753646851,-1.4999549388885498
1718451855286398700,50.68239868164063,-1.724835991859436,1.1273101568222046,-2.134418487548828
1718451855336168000,50.73216796875,-1.241350769996643,-0.8370969295501709,-0.15955759584903717
1718451855385936600,50.7819365234375,-1.1862155199050903,-1.6086843013763428,-0.15875792503356934
1718451855435705600,50.83170556640625,-0.9591825604438782,-1.7037873268127441,0.50511234998703
1718451855485474800,50.88147485351563,0.10403529554605484,0.47456878423690796,0.8715337514877319
1718451855535243800,50.931243896484375,0.7754561305046082,-1.7306687831878662,0.08820275217294693
1718451855585012700,50.9810126953125,-1.734508991241455,-0.09395445138216019,-0.9450703859329224
1718451855634782000,51.03078198242188,0.486087441444397,0.42198774218559265,0.3293053209781647
1718451855684550700,51.080550537109374,1.6190866231918335,-0.7354135513305664,1.7531272172927856
1718451855734319600,51.13031958007812,0.5359830260276794,-0.18203915655612946,0.15393643081188202
1718451855784088800,51.1800888671875,1.8724738359451294,0.28027045726776123,0.8914070129394531
1718451855833857800,51.22985791015625,1.3571052551269531,-0.21258123219013214,1.7082364559173584
1718451855883626800,51.279626708984374,0.7952454090118408,0.718367338180542,1.450490117073059
1718451855933396000,51.32939599609375,0.9413277506828308,0.8022691011428833,1.2013719081878662
1718451855983164700,51.37916455078125,0.8827627301216125,0.6153807640075684,1.1425189971923828
1718451856032933600,51.42893359375,1.2778618335723877,0.6512336730957031,0.5895982980728149
1718451856082702800,51.47870288085937,0.6878445148468018,0.6269619464874268,0.13127706944942474
1718451856132471800,51.52847192382813,0.12110922485589981,0.5024020671844482,0.17116603255271912
1718451856182240500,51.578240478515625,-0.4584138095378876,-0.3711542785167694,-0.8210222721099854
1718451856232009500,51.62800952148437,-1.5874091386795044,-1.4476957321166992,-2.035684823989868
1718451856281778700,51.67777880859375,-2.1970767974853516,-0.7485466599464417,-2.053643226623535
1718451856331547400,51.72754736328125,-2.5224668979644775,1.4205427169799805,-2.0676121711730957
1718451856381316400,51.77731640625,-1.3513747453689575,0.3501652181148529,-0.7849546670913696
1718451856431085600,51.82708544921875,-1.09183669090271,-1.467424750328064,-0.4085339903831482
1718451856480854500,51.8768544921875,-0.6906681060791016,-2.064377784729004,0.032314009964466095
1718451856530623500,51.92662353515625,-0.12344499677419662,0.20627117156982422,0.8153129816055298
1718451856580392700,51.97639282226562,0.9774172306060791,-0.5024158358573914,1.2437013387680054
1718451856630161400,52.02616137695313,-2.436070442199707,-1.130824089050293,-0.3858031630516052
1718451856679930400,52.075930419921875,-0.25945037603378296,0.6896697282791138,-0.46981850266456604
1718451856729699600,52.12569946289062,-0.8710220456123352,0.8548252582550049,-0.43966931104660034
1718451856779468500,52.17546850585938,1.8171664476394653,1.17958402633667,1.3257113695144653
1718451856829237500,52.225237548828126,1.7399014234542847,0.04464028403162956,0.7633394598960876
1718451856879006700,52.2750068359375,1.0521855354309082,-0.912727415561676,1.3078023195266724
1718451856928775400,52.324775390625,0.9218748211860657,-0.2035127580165863,1.8750879764556885
1718451856978544400,52.37454443359375,1.0784049034118652,0.31655895709991455,1.0245795249938965
1718451857028312300,52.42431225585938,0.9038363695144653,1.3187460899353027,1.017944574356079
1718451857078081500,52.47408154296875,1.2050893306732178,0.7229154109954834,0.8815891742706299
1718451857127850500,52.5238505859375,1.114748477935791,1.21884286403656,0.4407389163970947
1718451857177619700,52.57361962890625,0.4859848618507385,0.24766434729099274,-0.03613230958580971
1718451857227388700,52.623388671875,0.14597822725772858,0.4733438789844513,-0.0521523579955101
1718451857277157600,52.67315771484375,-0.7188031077384949,-0.6349889039993286,-0.9114990234375
1718451857326926600,52.72292651367187,-2.0530130863189697,-0.886398196220398,-2.581428289413452
1718451857376695600,52.77269555664063,-2.517176628112793,0.2579795718193054,-1.783201813697815
1718451857426464500,52.822464599609376,-2.050049066543579,1.6054449081420898,-2.0020198822021484
1718451857476233700,52.872233642578124,-1.3779207468032837,0.31750455498695374,0.24412284791469574
1718451857526002700,52.92200268554687,-1.116952657699585,-0.9232703447341919,-0.001810999121516943
1718451857575771600,52.97177172851563,-0.6485108137130737,-1.2389236688613892,0.7580510973930359
1718451857625540600,53.02154052734375,0.31903761625289917,0.25229084491729736,1.298607349395752
1718451857675309600,53.0713095703125,0.689345121383667,-2.7420730590820312,0.14833514392375946
1718451857725078500,53.12107861328125,-1.7921028137207031,-0.010827460326254368,-1.3859477043151855
1718451857774846500,53.17084643554688,1.088653802871704,1.519662618637085,0.38827699422836304
1718451857824615700,53.22061572265625,1.343636155128479,-0.9240701794624329,2.009859323501587
1718451857874384600,53.270384521484374,0.08724237978458405,1.3136682510375977,0.751591145992279
1718451857924153600,53.32015356445312,1.950650930404663,0.47628888487815857,0.7587112188339233
1718451857973922800,53.3699228515625,1.227367877960205,2.1380832195281982,1.4930036067962646
1718451858023691800,53.41969189453125,1.1055070161819458,0.12870445847511292,1.020737886428833
1718451858073460500,53.46946044921875,0.3283669948577881,3.7716283798217773,0.3466079831123352
1718451858123229700,53.51922973632813,0.7319722175598145,1.7356582880020142,0.4926964044570923
1718451858172999000,53.5689990234375,1.3602322340011597,1.1448216438293457,0.6157510876655579
1718451858222767900,53.618767822265625,0.5372599959373474,1.3296812772750854,-0.1852734386920929
1718451858272537000,53.668537109375,-0.1468137800693512,0.4478045105934143,-0.05228148773312569
1718451858322305000,53.718304931640624,-0.9402892589569092,0.4045727252960205,-1.7326105833053589
1718451858372074000,53.76807397460937,-2.3308515548706055,-0.017300577834248543,-2.8192138671875
1718451858421842700,53.8178427734375,-2.314816474914551,0.4851234257221222,-1.6162991523742676
1718451858471612000,53.86761181640625,-2.1006479263305664,1.4864333868026733,-2.6412131786346436
1718451858521380900,53.917380859375,-1.276025414466858,-0.8026553392410278,0.14949601888656616
1718451858571149800,53.96714990234375,-0.9629796743392944,-0.5106157064437866,-0.14320003986358643
1718451858620919000,54.0169189453125,-0.5981696248054504,-1.2157142162322998,0.34668514132499695
1718451858670688000,54.06668798828125,0.3968627452850342,-0.329418808221817,0.829008936882019
1718451858720457000,54.11645703125,0.8539935946464539,-1.361159324645996,0.7187869548797607
1718451858770226000,54.166225830078126,-1.4218997955322266,-1.2519713640213013,-1.0096030235290527
1718451858819993900,54.21599389648438,0.3695594370365143,1.3631389141082764,0.565301239490509
1718451858869762800,54.2657626953125,0.08513480424880981,0.19703377783298492,0.3095385730266571
1718451858919531800,54.31553173828125,1.4203195571899414,1.134352684020996,0.94313645362854
1718451858969301000,54.36530102539062,1.6334278583526611,-0.7124800682067871,1.0438158512115479
1718451859019070000,54.41507006835938,1.0600171089172363,1.361046314239502,1.2866442203521729
1718451859068839000,54.4648388671875,1.1457661390304565,0.43776246905326843,1.2654955387115479
1718451859118608000,54.51460791015625,0.953068733215332,2.2621519565582275,0.9171631336212158
1718451859168376800,54.564376953125,0.9486004710197449,0.7526827454566956,0.40335899591445923
1718451859218144800,54.61414477539063,1.2311644554138184,0.8975376486778259,0.7392383813858032
1718451859267914000,54.6639140625,0.7458510398864746,0.21292993426322937,-0.13142944872379303
1718451859317683000,54.713682861328124,-0.10097585618495941,0.003433112520724535,-0.07044555246829987
1718451859367452000,54.76345190429687,-0.8321884274482727,-0.032164089381694794,-1.3720779418945312
1718451859417221000,54.81322119140625,-2.1917660236358643,-0.1312538981437683,-2.5758609771728516
1718451859466990000,54.862989990234375,-2.5282375812530518,-0.5608891248703003,-1.5886726379394531
1718451859516759000,54.91275903320312,-1.9690219163894653,1.5159368515014648,-2.2900264263153076
1718451859566527000,54.96252685546875,-1.1781599521636963,-1.2733091115951538,0.06871337443590164
1718451859616296000,55.0122958984375,-0.9706534743309021,-1.451082706451416,-0.09731461107730865
1718451859666065000,55.06206494140625,-0.6897240281105042,-1.7837704420089722,0.5315380096435547
1718451859715833900,55.111833740234374,0.14632491767406464,0.2055605947971344,1.0571849346160889
1718451859765603000,55.16160302734375,0.6830625534057617,-1.0872255563735962,0.871431827545166
1718451859815372000,55.2113720703125,-2.0281026363372803,-0.07246150076389313,-1.0827398300170898
1718451859865140000,55.26113989257812,0.05262098088860512,0.8603107929229736,0.8104646801948547
1718451859914909200,55.3109091796875,0.1591419279575348,0.20486977696418762,-0.265150249004364
1718451859964678100,55.36067822265625,1.8240551948547363,0.40257173776626587,1.080653429031372
1718451860014446800,55.41044677734375,1.8329697847366333,-0.16259124875068665,0.739058792591095
1718451860064215800,55.4602158203125,1.2586592435836792,1.964097023010254,2.2076737880706787
1718451860113985000,55.509985107421876,0.9252700805664062,0.11722677201032639,1.1067054271697998
1718451860163752200,55.559752197265624,0.8372187614440918,2.5993094444274902,0.9446310997009277
1718451860213521400,55.609521484375,0.9517403244972229,0.4194323420524597,0.2884964644908905
1718451860263290400,55.65929028320313,1.1788725852966309,1.0912854671478271,0.783681333065033
1718451860313059300,55.709059326171875,0.6708430051803589,0.6272939443588257,-0.17156341671943665
1718451860362828500,55.75882861328125,-0.05399094894528389,-0.23799709975719452,-0.3450643718242645
1718451860412597500,55.80859741210938,-1.0518840551376343,-0.10401853173971176,-1.7269874811172485
1718451860462365400,55.85836547851562,-2.356415271759033,-1.175965428352356,-2.618068218231201
1718451860512134400,55.90813452148438,-2.596543073654175,0.5709731578826904,-1.633302092552185
1718451860561903400,55.9579033203125,-1.7305145263671875,0.8225315809249878,-2.296262264251709
1718451860611672300,56.00767236328125,-1.3425583839416504,-1.5076894760131836,0.24381005764007568
1718451860661441300,56.05744116210938,-1.1161713600158691,-1.8199774026870728,-0.03794825077056885
1718451860711209200,56.10720922851562,-0.7339654564857483,-1.3024718761444092,0.6656374335289001
1718451860760978400,56.156978515625,0.6080955266952515,0.2205987274646759,1.3946478366851807
1718451860810747400,56.206747314453125,-1.5920590162277222,-2.1219706535339355,-0.1650586575269699
1718451860860516400,56.25651635742187,-0.9620922803878784,-0.4873424470424652,0.061367541551589966
1718451860910285600,56.30628564453125,2.384284496307373,1.4171473979949951,-0.40366774797439575
1718451860960053500,56.35605346679687,0.2100871354341507,1.2585422992706299,-1.4053159952163696
1718451861009822500,56.40582250976563,1.499367117881775,0.8897463083267212,1.466921091079712
1718451861059591200,56.455591064453124,1.5842223167419434,-0.8759055733680725,1.0799657106399536
1718451861109360400,56.5053603515625,0.9555913209915161,0.6690980195999146,1.3041071891784668
1718451861159129000,56.55512915039063,1.0128252506256104,0.9111974239349365,1.037588119506836
1718451861208897000,56.60489697265625,1.0520732402801514,2.024162530899048,1.0594812631607056
1718451861258666200,56.65466625976563,1.3967448472976685,0.5800561308860779,0.572598934173584
1718451861308435200,56.704435302734375,0.9003854990005493,0.4875321090221405,0.1796911060810089
1718451861358204200,56.7542041015625,0.32732051610946655,0.2749876379966736,0.3685230314731598
1718451861407973400,56.80397338867188,-0.14839260280132294,-0.289944589138031,-0.4816534221172333
1718451861457741300,56.8537412109375,-1.7999980449676514,-1.3860899209976196,-1.637600064277649
1718451861507510300,56.90351025390625,-2.173084259033203,-1.3753055334091187,-2.25217866897583
1718451861557279200,56.953279296875,-2.230689525604248,1.4718408584594727,-1.580957293510437
1718451861607048200,57.00304809570312,-1.471969485282898,-0.05793682485818863,-1.3001892566680908
1718451861656816000,57.05281616210937,-1.0974446535110474,-0.6801757216453552,-0.23165957629680634
1718451861706585000,57.10258520507813,-0.9414361715316772,-2.127413272857666,-0.05486013740301132
1718451861756354000,57.15235400390625,-0.5720751881599426,-0.3824104964733124,0.4864443838596344
1718451861806123300,57.202123291015624,0.6358537077903748,0.024971723556518555,1.3263156414031982
1718451861855891200,57.25189111328125,-1.610200047492981,-1.0188779830932617,0.03217938542366028
1718451861905660200,57.30166015625,-0.7745256423950195,-0.48552241921424866,-0.03301800414919853
1718451861955429000,57.35142919921875,2.1118459701538086,1.2264899015426636,0.9910376667976379
1718451862005198300,57.4011982421875,-0.8803264498710632,-0.48545709252357483,-1.6650941371917725
1718451862054966300,57.45096630859375,1.3204302787780762,1.566457748413086,1.498073935508728
1718451862104735200,57.5007353515625,1.6934505701065063,-0.7977011799812317,0.6941776871681213
1718451862154505000,57.5505048828125,1.2669525146484375,1.6460286378860474,1.4244260787963867
1718451862204274200,57.600274169921875,1.1079872846603394,0.8810837268829346,1.2283236980438232
1718451862254042000,57.6500419921875,0.6718400120735168,1.8635313510894775,0.9164670705795288
1718451862303811000,57.69981103515625,1.0428866147994995,0.41729462146759033,0.5749387145042419
1718451862353580300,57.74958032226562,1.1241921186447144,0.8062797784805298,0.33411288261413574
1718451862403349200,57.79934936523438,0.3004878759384155,0.5577123761177063,0.09300887584686279
1718451862453117200,57.8491171875,0.028107907623052597,0.006685230880975723,-0.6704400777816772
1718451862502886100,57.89888623046875,-1.3504574298858643,-0.6655442714691162,-1.987166166305542
1718451862552655000,57.94865502929687,-2.1591432094573975,-2.147819995880127,-2.2599611282348633
1718451862602423300,57.99842333984375,-2.4372966289520264,1.0799094438552856,-2.050391912460327
1718451862652192000,58.04819189453125,-1.4134643077850342,0.20375818014144897,-1.6593482494354248
1718451862701961000,58.0979609375,-1.1873650550842285,-1.465097188949585,0.16596749424934387
1718451862751730200,58.147730224609376,-1.1187494993209839,-1.6761196851730347,0.07861699908971786
1718451862801498000,58.197498046875,-0.4756450653076172,-0.38607174158096313,0.7876255512237549
1718451862851267000,58.24726708984375,0.7643919587135315,-0.33056581020355225,1.5549837350845337
1718451862901036000,58.2970361328125,-2.8732292652130127,-0.4964672029018402,-0.5445117354393005
1718451862950805200,58.34680517578125,-0.8842360973358154,0.04860076308250427,0.15209877490997314
1718451863000573200,58.3965732421875,2.47529935836792,-0.23152504861354828,1.0199476480484009
1718451863050342100,58.446342041015626,0.18631941080093384,-0.27141332626342773,-0.3280453085899353
1718451863100111400,58.496111328125,2.204050302505493,1.1678465604782104,1.2221742868423462
1718451863149878800,58.545878662109374,1.7856550216674805,-1.161976933479309,0.7125284075737
1718451863199647700,58.59564770507812,1.1154892444610596,0.8858421444892883,1.7516279220581055
1718451863249416700,58.64541674804688,0.8783180713653564,0.6315348148345947,0.958922803401947
1718451863299185000,58.69518481445313,0.7456649541854858,1.872806191444397,1.0056511163711548
1718451863348953600,58.74495361328125,1.1994315385818481,0.3271053433418274,0.7846669554710388
1718451863398722600,58.79472265625,0.9869083762168884,0.9747031927108765,0.13115935027599335
1718451863448490800,58.84449072265625,0.25494125485420227,0.29656222462654114,0.4776346683502197
1718451863498259700,58.894259765625,-0.2284974902868271,-0.05566950887441635,-0.7816519141197205
1718451863548028700,58.94402856445313,-1.7573573589324951,-0.9940598011016846,-2.0225350856781006
1718451863597798000,58.9937978515625,-2.2352747917175293,-1.1933891773223877,-2.2589850425720215
1718451863647565800,59.04356591796875,-2.280730962753296,1.2142229080200195,-1.619758129119873
1718451863697334800,59.093334716796875,-1.5965547561645508,0.6195879578590393,-1.5343459844589233
1718451863747103700,59.14310375976562,-1.2529525756835938,-1.170524001121521,-0.03999876603484154
1718451863796871700,59.19287158203125,-0.9278915524482727,-2.257086753845215,-0.1642816960811615
1718451863846641000,59.24264086914062,-0.4321482181549072,-0.2779790461063385,0.720028281211853
1718451863896409900,59.29240991210938,0.7524294853210449,-0.5271660089492798,1.2135330438613892
1718451863946177800,59.342177734375,-1.1925190687179565,-2.177640676498413,-0.874787449836731
1718451863995946800,59.39194677734375,-0.8617411851882935,0.20135122537612915,-0.5937782526016235
1718451864045715700,59.4417158203125,2.10956072807312,1.6863157749176025,0.5559619069099426
1718451864095484000,59.49148388671875,-0.1361951231956482,0.3033868968486786,-0.9549611210823059
1718451864145252600,59.54125268554687,2.178684949874878,0.7058969140052795,1.4360464811325073
1718451864195021000,59.59102099609375,1.7109878063201904,-1.270448923110962,0.6775486469268799
1718451864244790300,59.640790283203124,1.2210205793380737,1.987420678138733,1.8262572288513184
1718451864294559200,59.69055932617187,1.0283485651016235,0.17239558696746826,0.9192962646484375
1718451864344327200,59.7403271484375,0.7721021771430969,2.186335325241089,1.224008321762085
1718451864394096400,59.79009643554687,1.1031320095062256,0.08211072534322739,0.6786060929298401
1718451864443865300,59.839865234375,1.163257360458374,0.9245977401733398,0.23007702827453613
1718451864493633300,59.88963330078125,0.33951324224472046,0.2686763405799866,0.16220593452453613
1718451864543402200,59.93940234375,-0.1198132112622261,-0.2796382009983063,-0.8373236656188965
1718451864593171500,59.98917138671875,-1.5070788860321045,-0.9473286867141724,-1.9948933124542236
1718451864642939400,60.038939453125,-2.1526899337768555,-0.8773463368415833,-2.5089261531829834
1718451864692708400,60.08870825195312,-2.4355320930480957,0.8631187081336975,-1.4727592468261719
1718451864742477000,60.13847705078125,-1.7078285217285156,0.6231879591941833,-1.911687970161438
1718451864792245200,60.18824536132813,-1.1863982677459717,-0.18450649082660675,0.674439549446106
1718451864842014200,60.23801416015625,-1.0741959810256958,-2.649869441986084,-0.010215631686151028
1718451864891782400,60.28778247070313,-0.5751025080680847,-0.6843312382698059,0.6668714284896851
1718451864941551000,60.337551025390624,0.6679650545120239,-0.2995135486125946,1.3898587226867676
1718451864991320300,60.3873203125,-1.3204667568206787,-1.7744157314300537,-0.5749369263648987
1718451865041088300,60.437088134765624,-0.8911622166633606,-0.5656096339225769,-0.44539323449134827
1718451865090857200,60.48685717773437,2.0693907737731934,1.854114055633545,-0.049093618988990784
1718451865140625200,60.53662524414062,-0.12879203259944916,0.875507652759552,-1.0207782983779907
1718451865190393600,60.5863935546875,1.9172921180725098,1.3721424341201782,1.4585535526275635
1718451865240162800,60.636162841796875,1.7380934953689575,-1.1431794166564941,0.7115323543548584
1718451865289930800,60.6859306640625,1.0906481742858887,0.487186461687088,1.8004653453826904
1718451865339699700,60.73569970703125,0.8790322542190552,0.4965720474720001,1.1625884771347046
1718451865389467600,60.785467529296874,0.8084555268287659,2.176912307739258,1.1685919761657715
1718451865439236900,60.83523681640625,1.2454372644424438,0.022343717515468597,0.4972967505455017
1718451865489005800,60.885005859375,1.048125147819519,1.1873462200164795,0.4808295965194702
1718451865538773800,60.93477368164063,0.3741597831249237,0.27383074164390564,0.05669226869940758
1718451865588542700,60.984542724609376,0.013455924578011036,0.11813108623027802,-0.5754619836807251
1718451865638311000,61.03431079101563,-1.3102161884307861,-0.7519689798355103,-1.626905083656311
1718451865688080000,61.084079833984376,-2.247553825378418,-0.8082755208015442,-2.606280565261841
1718451865737848800,61.133848876953124,-2.3093082904815674,0.6272817850112915,-1.3873274326324463
1718451865787616800,61.18361669921875,-1.6830483675003052,0.3427090346813202,-1.9266960620880127
1718451865837386000,61.23338598632812,-1.1719894409179688,-1.1334222555160522,0.09755860269069672
1718451865887154000,61.28315380859375,-1.166442632675171,-2.0640482902526855,0.09699175506830215
1718451865936923000,61.3329228515625,-0.7559840679168701,-1.2897955179214478,0.678823709487915
1718451865986691800,61.38269189453125,0.44791269302368164,0.14761577546596527,1.4272276163101196
1718451866036459800,61.43245971679688,-0.1792813092470169,-2.0780818462371826,-0.7912440896034241
1718451866086228700,61.482228759765626,-1.148774266242981,-0.04757382720708847,-0.6430318355560303
1718451866135997000,61.53199682617188,1.2616125345230103,1.9017702341079712,1.0152283906936646
1718451866185765600,61.581765625,-0.4972694218158722,0.05023574084043503,-0.7303299307823181
1718451866235533600,61.631533447265625,1.4275909662246704,0.717244029045105,1.3761829137802124
1718451866285302500,61.68130249023437,1.8465275764465332,0.1133718341588974,0.8473526239395142
1718451866335071200,61.7310712890625,1.2938547134399414,1.983368992805481,2.4768226146698
1718451866384839400,61.78083935546875,0.9911633729934692,0.5750895738601685,0.8263770937919617
1718451866434608400,61.8306083984375,0.864911675453186,2.0931742191314697,0.9217919111251831
1718451866484376300,61.88037622070313,1.191872477531433,0.5109605193138123,0.5834231972694397
1718451866534145300,61.930145263671875,1.151197075843811,0.8632766008377075,0.5544857382774353
