time,seconds_elapsed,z,y,x
1718451804619029500,0.015029541015625,0.02028796076774597,-0.08727258443832397,0.022407837212085724
1718451804668801500,0.064801513671875,0.040875259786844254,-0.09354113787412643,0.15411846339702606
1718451804718573600,0.114573486328125,-0.008945025503635406,0.013195430859923363,0.02604624815285206
1718451804768344300,0.16434423828125,0.017640246078372,-0.008651811629533768,0.03477901965379715
1718451804818116400,0.214116455078125,0.04935556650161743,-0.05128609016537666,0.06315845996141434
1718451804867888400,0.263888427734375,0.016998425126075745,-0.048894573003053665,0.02611415833234787
1718451804917660400,0.313660400390625,0.03214648365974426,-0.057072073221206665,0.09148464351892471
1718451804967431400,0.363431396484375,-0.014200774021446705,-0.03771968185901642,0.001068193931132555
1718451805017203500,0.413203369140625,0.013619139790534973,0.0037446708884090185,-0.027089940384030342
1718451805066974500,0.462974365234375,0.014138721860945225,-0.0413181446492672,0.007963384501636028
1718451805116746200,0.512746337890625,0.030130205675959587,-0.01561438012868166,-0.001592037733644247
1718451805166518300,0.562518310546875,0.03743765130639076,-0.030776554718613625,-0.02610883302986622
1718451805216289300,0.612289306640625,0.02358601987361908,-0.0009731190511956811,-0.0014644722687080503
1718451805266061300,0.662061279296875,0.03224635496735573,0.0080310283228755,-0.018246382474899292
1718451805315833300,0.711833251953125,0.02551468089222908,-0.017300426959991455,-0.04375919699668884
1718451805365604400,0.761604248046875,0.022351112216711044,-0.01769990101456642,-0.005604356061667204
1718451805415376100,0.811376220703125,0.016596820205450058,-0.0039015309885144234,-0.0265399981290102
1718451805465148200,0.861148193359375,0.027899540960788727,0.001300155185163021,-0.0014599448768422008
1718451805514919200,0.910919189453125,0.015673235058784485,-0.008463792502880096,-0.014366954565048218
1718451805564691200,0.960691162109375,0.0049763829447329044,-0.008869391866028309,-0.017050089314579964
1718451805614463200,1.010463134765625,-0.007761516608297825,-0.024709606543183327,-0.005994775798171759
1718451805664234500,1.060234375,0.0022682142443954945,0.011378355324268341,-0.024479776620864868
1718451805714006300,1.11000634765625,0.011669172905385494,-0.007504787761718035,-0.061223410069942474
1718451805763778300,1.1597783203125,0.01140099298208952,-0.031146733090281487,-0.008225705474615097
1718451805813549300,1.20954931640625,0.0029550434555858374,-0.013903564773499966,-0.055870190262794495
1718451805863321300,1.2593212890625,0.004142280668020248,-0.01836436055600643,0.0040972731076180935
1718451805913092400,1.30909228515625,0.01751694269478321,0.011803662404417992,-0.014058294706046581
1718451805962864400,1.358864501953125,0.010898187756538391,-0.023915452882647514,-0.0476953499019146
1718451806012636200,1.40863623046875,0.00301762786693871,-0.007160441018640995,0.014370683580636978
1718451806062407200,1.4584072265625,0.004192081745713949,-0.0020690099336206913,-0.0019627497531473637
1718451806112179200,1.50817919921875,0.010264355689287186,-0.0004114583716727793,0.009843842126429081
1718451806161951200,1.557951171875,0.011082478798925877,-0.0023246733471751213,-0.011579690501093864
1718451806211722500,1.607722412109375,0.0016026903176680207,0.008946357294917107,0.011056645773351192
1718451806261494300,1.657494384765625,-0.003920439630746841,0.008637962862849236,-0.04765194281935692
1718451806311265300,1.707265380859375,0.0034876756835728884,0.013017265126109123,-0.02305684983730316
1718451806361037300,1.757037353515625,-0.007924235425889492,0.025708027184009552,-0.02707422897219658
1718451806410809300,1.806809326171875,0.022854182869195938,0.013002617284655571,-0.021470405161380768
1718451806460580400,1.856580322265625,0.013470801524817944,-0.023722106590867043,-0.0029704899061471224
1718451806510352400,1.906352294921875,0.008081362582743168,0.029395172372460365,-0.011117632500827312
1718451806560124400,1.95612451171875,-0.0006585997180081904,-0.008527175523340702,-0.03235740587115288
1718451806609895200,2.005895263671875,-0.01318344660103321,0.007400125730782747,0.009423862211406231
1718451806659667200,2.055667236328125,-0.01653876341879368,0.06876122206449509,-0.02593386173248291
1718451806709438200,2.105438232421875,0.0028698223177343607,-0.01185399666428566,0.01461755856871605
1718451806759210200,2.155210205078125,0.016283897683024406,0.03749650716781616,0.03148282319307327
1718451806808982300,2.204982177734375,0.0046331011690199375,0.03750503063201904,0.052507683634757996
1718451806858753300,2.254753173828125,0.009887518361210823,0.07328273355960846,0.01918887533247471
1718451806908525300,2.304525390625,0.010977284051477909,0.029207685962319374,0.13717623054981232
1718451806958296300,2.35429638671875,0.04578826203942299,0.1994798183441162,0.14709916710853577
1718451807008068400,2.404068359375,0.015896674245595932,0.23540478944778442,0.30348852276802063
1718451807057840400,2.45384033203125,0.07511579245328903,0.20233765244483948,0.3569272458553314
1718451807107611600,2.503611572265625,-0.12748898565769196,0.2591431438922882,0.02003176510334015
1718451807157383400,2.553383544921875,0.0017251957906410098,0.12556219100952148,0.11245570331811905
1718451807207154400,2.603154541015625,-0.08235932141542435,0.11554710566997528,0.24900822341442108
1718451807256926500,2.652926513671875,-0.06143033877015114,0.08399529755115509,0.25088682770729065
1718451807306698500,2.702698486328125,0.04772038385272026,0.42736226320266724,0.37029922008514404
1718451807356469500,2.752469482421875,0.0990418940782547,0.34233444929122925,0.38777461647987366
1718451807406241500,2.802241455078125,0.22597001492977142,0.416473388671875,0.7553358674049377
1718451807456012500,2.852012451171875,0.38001149892807007,-0.3095802366733551,0.2951275110244751
1718451807505784600,2.90178466796875,0.11331111192703247,0.3055037260055542,0.32890093326568604
1718451807555555600,2.9515556640625,0.5890491604804993,0.4212058186531067,-0.035176362842321396
1718451807605327600,3.00132763671875,0.5586702227592468,0.9446940422058105,-0.8022104501724243
1718451807655098400,3.051098388671875,1.0036470890045166,0.7660561800003052,-0.5103633999824524
1718451807704870400,3.100870361328125,1.2981523275375366,1.036242127418518,-0.29571953415870667
1718451807754642400,3.150642333984375,0.8786846995353699,0.5505792498588562,0.334284245967865
1718451807804413400,3.200413330078125,0.346469521522522,-1.2718149423599243,0.7634323835372925
1718451807854185500,3.250185546875,0.041673943400382996,-0.8729080557823181,0.07154475897550583
1718451807903956700,3.299956787109375,-0.055870722979307175,0.1718449890613556,-0.41559213399887085
1718451807953728500,3.349728515625,-0.2145828753709793,0.06428071856498718,0.10675227642059326
1718451808003499500,3.39949951171875,-0.03338379040360451,0.18952599167823792,0.21976245939731598
1718451808053271600,3.449271484375,-0.0561375729739666,0.09184043854475021,-0.30932164192199707
1718451808103042600,3.49904248046875,-0.2658149003982544,0.12532755732536316,-0.23641812801361084
1718451808152814600,3.548814697265625,-0.33675405383110046,-0.13308508694171906,-0.775643527507782
1718451808202585600,3.598585693359375,-0.22806672751903534,0.15594245493412018,-0.5149096846580505
1718451808252357600,3.648357666015625,-0.12356401234865189,0.9121752977371216,-0.2665134370326996
1718451808302128600,3.698128662109375,-0.08762039244174957,1.1397408246994019,-0.5581793785095215
1718451808351900700,3.747900634765625,0.8873226642608643,1.13741135597229,-1.2051043510437012
1718451808401672700,3.797672607421875,0.8411165475845337,-0.4048369824886322,-0.23111417889595032
1718451808451443700,3.847443603515625,-0.10451629012823105,-0.7433258295059204,2.123138666152954
1718451808501215700,3.8972158203125,0.24499909579753876,-0.9855530858039856,0.5651084184646606
1718451808550986500,3.946986572265625,0.1991192251443863,0.022578014060854912,-0.4798177480697632
1718451808600758500,3.996758544921875,0.252768337726593,-0.5977283716201782,0.17786480486392975
1718451808650529500,4.046529541015625,0.17913299798965454,-0.2704562544822693,0.4193096458911896
1718451808700301600,4.096301513671875,0.09433475881814957,0.13540789484977722,0.07774992287158966
1718451808750072800,4.14607275390625,0.007093329448252916,-0.49994218349456787,-0.04141215607523918
1718451808799844900,4.195844970703125,0.05308345705270767,-0.12382127344608307,0.0011981561547145247
1718451808849615600,4.24561572265625,-0.388974130153656,-0.3087919354438782,0.3671867847442627
1718451808899386600,4.29538671875,-0.5460396409034729,-0.4763886630535126,0.27308905124664307
1718451808949158700,4.34515869140625,-0.23812921345233917,-0.6549378633499146,0.08825928717851639
1718451808998930700,4.3949306640625,-0.4352651834487915,-0.17222796380519867,0.20849594473838806
1718451809048701400,4.444701416015625,-0.3464343845844269,-0.20392543077468872,-0.20264099538326263
1718451809098473000,4.494472900390625,-0.7132880091667175,-0.42160502076148987,-0.0620572455227375
1718451809148245000,4.544244873046875,-0.8016290664672852,-0.2887689471244812,-0.25464746356010437
1718451809198016300,4.594016357421875,-0.9903749823570251,-0.4572450518608093,-0.18769240379333496
1718451809247788300,4.643788330078125,-1.222472906112671,-0.13525156676769257,-0.3050946593284607
1718451809297559000,4.69355908203125,-1.1857283115386963,-0.2025456428527832,-0.5454428195953369
1718451809347331000,4.7433310546875,-0.804027795791626,-0.4209810495376587,-0.3571011424064636
1718451809397102000,4.79310205078125,-0.5030034780502319,-0.6193889379501343,-0.1938842535018921
1718451809446874000,4.8428740234375,-0.5081910490989685,-0.5618873238563538,0.04234559088945389
1718451809496645000,4.89264501953125,-0.4607905149459839,-0.4385579228401184,0.08404643088579178
1718451809546416000,4.942416015625,-0.584510326385498,-0.44041839241981506,-0.05920526757836342
1718451809596188200,4.992188232421875,-0.7351107597351074,-0.46462494134902954,-0.4077131748199463
1718451809645959200,5.041959228515625,-0.7460017204284668,-0.19034065306186676,-0.40686070919036865
1718451809695731200,5.091731201171875,-0.47402456402778625,0.2624033987522125,-0.214008167386055
1718451809745502200,5.141502197265625,-0.25702300667762756,-0.4339298605918884,0.0955616757273674
1718451809795274000,5.19127392578125,-0.5400621891021729,-0.8162261247634888,-0.135277658700943
1718451809845045000,5.241044921875,-1.0993001461029053,-0.1558455228805542,-0.34733718633651733
1718451809894816300,5.290816162109375,-0.7132185101509094,0.029513949528336525,0.03092462569475174
1718451809944588300,5.34058837890625,-0.7499666810035706,-0.09852124750614166,0.08165758103132248
1718451809994359000,5.390359130859375,-1.057839035987854,-0.21388351917266846,-0.15547001361846924
1718451810044131000,5.440131103515625,-1.0960936546325684,-0.05770643800497055,0.023016635328531265
1718451810093902000,5.489902099609375,-0.7623215913772583,0.3440830707550049,-0.011574896983802319
1718451810143672600,5.539672607421875,-0.6266684532165527,0.6400172710418701,0.27415910363197327
1718451810193444600,5.589444580078125,-0.769066333770752,0.9157825112342834,0.26309821009635925
1718451810243215400,5.63921533203125,-1.0649845600128174,-0.44879618287086487,0.333047479391098
1718451810292987400,5.6889873046875,-0.8542051911354065,-3.905251979827881,0.7943921685218811
1718451810342758400,5.73875830078125,-0.2216610163450241,0.9195634126663208,-0.05478015914559364
1718451810392529400,5.788529296875,0.19199420511722565,-1.1542712450027466,-1.1565922498703003
1718451810442301200,5.83830126953125,0.2632769048213959,-1.1717634201049805,-0.5121335983276367
1718451810492072400,5.888072509765625,-0.41574153304100037,-2.041849374771118,-0.07277620583772659
1718451810541843500,5.937843505859375,-0.8754788041114807,-1.3237500190734863,-0.32752513885498047
1718451810591615500,5.987615478515625,-0.08603475242853165,-2.126516580581665,0.25496652722358704
1718451810641386200,6.03738623046875,-0.23211686313152313,-1.467748761177063,-0.02701723575592041
1718451810691158300,6.087158203125,0.677453875541687,-3.1471376419067383,0.5115988254547119
1718451810740929300,6.13692919921875,0.30340009927749634,-2.3657233715057373,0.27610906958580017
1718451810790700500,6.186700439453125,0.685603141784668,-0.6048054695129395,-1.0211116075515747
1718451810840472600,6.23647265625,0.21162037551403046,-0.6713759899139404,-0.16046451032161713
1718451810890243300,6.286243408203125,0.16315136849880219,-0.38111990690231323,-0.3046416640281677
1718451810940015400,6.336015380859375,0.09660643339157104,-1.4774680137634277,0.3154466450214386
1718451810989786400,6.385786376953125,0.2937975227832794,-1.0937743186950684,-0.17002418637275696
1718451811039557400,6.435557373046875,0.16133110225200653,-0.43730542063713074,-0.19236119091510773
1718451811089329400,6.485329345703125,0.32976698875427246,-1.409034013748169,0.5240371227264404
1718451811139100700,6.5351005859375,0.24861380457878113,-1.0989888906478882,0.05223843827843666
1718451811188872400,6.58487255859375,0.09765625,-1.2539602518081665,0.0785113200545311
1718451811238643700,6.634643798828125,-0.1488880217075348,-0.3902825117111206,-0.608726441860199
1718451811288414700,6.684414794921875,0.15166808664798737,-0.45217838883399963,-0.24823404848575592
1718451811338186800,6.734186767578125,0.16299903392791748,-0.8146974444389343,-0.19042986631393433
1718451811387957500,6.78395751953125,0.4973229467868805,-0.16413594782352448,-0.5737476944923401
1718451811437728800,6.833728759765625,1.1827348470687866,-0.7513115406036377,0.027411917224526405
1718451811487500500,6.88350048828125,1.1989367008209229,-1.1939126253128052,0.5370314717292786
1718451811537271800,6.933271728515625,1.7804871797561646,-0.9632216691970825,0.8344269394874573
1718451811587043600,6.983043701171875,1.78793203830719,-1.1489734649658203,0.929554283618927
1718451811636814600,7.032814697265625,1.6128110885620117,0.07161533087491989,0.7931234836578369
1718451811686585600,7.082585693359375,1.4378862380981445,0.49281689524650574,0.8051888942718506
1718451811736357600,7.132357666015625,0.5647779107093811,1.5358508825302124,-0.4552050530910492
1718451811786128600,7.182128662109375,1.1065950393676758,-0.7666401863098145,1.3386362791061401
1718451811835899600,7.231899658203125,1.0332415103912354,2.6364548206329346,1.057922124862671
1718451811885671700,7.281671630859375,0.43815019726753235,3.0027449131011963,-0.5170681476593018
1718451811935442700,7.331442626953125,1.2825608253479004,3.499908447265625,-0.41325920820236206
1718451811985213400,7.38121337890625,0.5434462428092957,2.1157422065734863,-0.06483519077301025
1718451812034985500,7.4309853515625,1.6201614141464233,1.4592554569244385,-2.0858874320983887
1718451812084756700,7.4807568359375,0.7218127846717834,-0.2506503164768219,-2.352646827697754
1718451812134527700,7.53052783203125,1.140689730644226,0.39947041869163513,-2.5348081588745117
1718451812184299800,7.5802998046875,0.9128186702728271,-1.4483156204223633,-1.9618271589279175
1718451812234070500,7.630070556640625,0.6476616263389587,-2.3192403316497803,-0.7634062767028809
1718451812283841500,7.679841552734375,0.385620653629303,-1.234245777130127,-1.4106271266937256
1718451812333613600,7.729613525390625,-1.7970912456512451,-1.833636999130249,-1.139587163925171
1718451812383384800,7.779384765625,-1.3200863599777222,-0.8885804414749146,-0.6515673995018005
1718451812433155600,7.829155517578125,-1.519451379776001,-1.6494061946868896,0.14604215323925018
1718451812482927600,7.878927734375,-3.1429200172424316,-0.113093800842762,-1.0451306104660034
1718451812532698600,7.92869873046875,-3.5172054767608643,0.12186571955680847,-1.7846252918243408
1718451812582469600,7.9784697265625,-2.4644956588745117,0.03536118566989899,-0.5574544668197632
1718451812632240600,8.02824072265625,-1.3506983518600464,0.04319300875067711,0.09955108910799026
1718451812682012700,8.0780126953125,0.9482318162918091,-0.6898868083953857,1.4953314065933228
1718451812731783700,8.12778369140625,1.9891141653060913,0.41373565793037415,1.7042348384857178
1718451812781554700,8.1775546875,2.11264967918396,1.9249866008758545,-0.22687283158302307
1718451812831326700,8.22732666015625,2.9989163875579834,1.8574116230010986,-0.0027150926180183887
1718451812881097500,8.277097412109375,3.0449256896972656,0.8351231217384338,0.9209812879562378
1718451812930868700,8.32686865234375,2.7935187816619873,1.3037934303283691,0.8623419404029846
1718451812980640800,8.376640869140624,2.4097580909729004,1.3524717092514038,1.5285018682479858
1718451813030411800,8.426411865234375,1.3306553363800049,-1.5139445066452026,1.3788121938705444
1718451813080182500,8.4761826171875,0.5369476079940796,0.0011507519520819187,0.5342519283294678
1718451813129954800,8.525954833984375,-0.6532198786735535,-0.38243579864501953,1.1005454063415527
1718451813179725800,8.575725830078126,-0.8932719230651855,-0.7931897640228271,0.4054263234138489
1718451813229496800,8.625496826171876,-1.623327374458313,-1.257267951965332,-0.6625789999961853
1718451813279267800,8.675267822265624,-3.272078037261963,-1.2210489511489868,-1.2509392499923706
1718451813329040000,8.725039794921875,-3.4981489181518555,-3.050152540206909,-1.338042974472046
1718451813378811000,8.774810791015625,-1.7784024477005005,-1.2184613943099976,-0.48694196343421936
1718451813428582000,8.824581787109375,-1.7862305641174316,-1.4237592220306396,-0.4512454867362976
1718451813478354000,8.87435400390625,-2.064521312713623,0.40711209177970886,-0.5975515842437744
1718451813528125000,8.924125,-0.5035632848739624,0.7314989566802979,-0.6647657752037048
1718451813577896000,8.97389599609375,-0.26293787360191345,0.034379810094833374,-1.4719700813293457
1718451813627667000,9.0236669921875,-0.8629728555679321,0.12159433960914612,-1.6522533893585205
1718451813677439000,9.07343896484375,1.3566118478775024,0.34104734659194946,-0.8831883668899536
1718451813727209700,9.123209716796875,-0.21510644257068634,-1.532212495803833,0.5058232545852661
1718451813776981000,9.17298095703125,1.0359699726104736,0.7760416865348816,1.2557320594787598
1718451813826753000,9.2227529296875,0.9461311101913452,0.14501550793647766,1.4591236114501953
1718451813876524000,9.27252392578125,0.328904390335083,0.8504072427749634,0.5885074734687805
1718451813926294800,9.322294677734375,0.8101895451545715,1.414622187614441,-0.36293211579322815
1718451813976065800,9.372065673828125,1.440342664718628,0.8920108675956726,0.29844075441360474
1718451814025837800,9.421837890625,1.3023641109466553,0.9686521291732788,0.26843199133872986
1718451814075609000,9.471609130859376,1.2508646249771118,-1.7160574197769165,-0.646222710609436
1718451814125379600,9.521379638671876,3.720994234085083,-0.04580850154161453,0.7813054323196411
1718451814175151600,9.571151611328125,3.0074715614318848,-1.4602372646331787,0.16407069563865662
1718451814224922600,9.620922607421875,-0.12030031532049179,-0.6789873242378235,-0.040892306715250015
1718451814274693600,9.670693603515625,-1.8038018941879272,-2.0982038974761963,-1.0483448505401611
1718451814324465700,9.720465576171875,-0.6987934708595276,-3.2300117015838623,-2.2433505058288574
1718451814374236700,9.770236572265626,-0.007819040678441525,4.637540340423584,-2.4827089309692383
1718451814424007700,9.820007568359374,3.277883529663086,-0.5234440565109253,0.01894865743815899
1718451814473778700,9.86977880859375,1.036993384361267,-1.423742651939392,-0.14964541792869568
1718451814523550700,9.91955078125,2.18351149559021,-3.3748903274536133,0.25051504373550415
1718451814573321500,9.969321533203125,0.8857578039169312,-1.247317910194397,0.7576274871826172
1718451814623092700,10.0190927734375,0.13360174000263214,-2.0512876510620117,0.9384894371032715
1718451814672863700,10.06886376953125,-2.2306697368621826,1.596617579460144,-0.3000761866569519
1718451814722635800,10.1186357421875,-0.5047276020050049,0.4064106345176697,0.3397141695022583
1718451814772406500,10.168406494140624,1.1005851030349731,-0.6251320242881775,1.1401845216751099
1718451814822177500,10.218177490234375,3.034959316253662,0.03958682343363762,0.7070953845977783
1718451814871949600,10.267949462890625,3.1643269062042236,-1.508836030960083,1.0466814041137695
1718451814921720800,10.317720947265625,2.322535753250122,-3.2566421031951904,3.4407424926757812
1718451814971491600,10.36749169921875,1.0232809782028198,-0.6556822657585144,1.7145817279815674
1718451815021262600,10.4172626953125,0.27211034297943115,1.2423456907272339,1.1991643905639648
1718451815071034600,10.46703466796875,-0.06322850286960602,2.599179744720459,0.45357975363731384
1718451815120806000,10.516805908203125,-0.23032508790493011,1.6600968837738037,0.12317998707294464
1718451815170577000,10.566576904296875,0.9705400466918945,0.04181189462542534,0.5366035103797913
1718451815220348000,10.616347900390625,-0.2143527716398239,1.0359619855880737,0.2053837776184082
1718451815270120000,10.666119873046876,-0.45970475673675537,-0.0507768951356411,-0.4133811891078949
1718451815319891000,10.715890869140624,-0.9984132051467896,-0.565392017364502,-2.473015546798706
1718451815369661700,10.76566162109375,-1.6541389226913452,-0.6632722616195679,-2.3860256671905518
1718451815419433000,10.815432861328125,-1.975973129272461,0.9515817761421204,-2.4221341609954834
1718451815469205000,10.865205078125,-1.2800103425979614,0.36567172408103943,-1.8190343379974365
1718451815518976000,10.91497607421875,-1.2560818195343018,-0.8884417414665222,-0.6124873757362366
1718451815568747000,10.9647470703125,-1.0040931701660156,-1.4301137924194336,-0.4432120621204376
1718451815618517800,11.014517822265624,-0.7190667986869812,-0.6281211972236633,0.13107413053512573
1718451815668289800,11.064289794921875,0.387182354927063,-0.23165079951286316,0.9570119976997375
1718451815718061000,11.11406103515625,-0.48945146799087524,-0.46563294529914856,-0.08800122886896133
1718451815767832000,11.16383203125,-0.6910772323608398,-1.7503772974014282,-0.7006585001945496
1718451815817602800,11.213602783203125,0.8481020331382751,1.5864088535308838,0.7076565027236938
1718451815867373800,11.263373779296876,-0.11724886298179626,1.9441778659820557,-0.2707420289516449
1718451815917145900,11.313145751953124,1.1314668655395508,1.7892277240753174,1.3891607522964478
1718451815966917000,11.362917236328125,1.7272242307662964,0.29401299357414246,1.3606559038162231
1718451816016687900,11.41268798828125,0.861191987991333,0.5271985530853271,1.3329004049301147
1718451816066459000,11.462458984375,0.849831759929657,0.5342937707901001,1.1705721616744995
1718451816116231000,11.51223095703125,0.6124061346054077,2.1568214893341064,1.2644976377487183
1718451816166002000,11.562001953125,0.6670603156089783,0.2989627420902252,0.4370926320552826
1718451816215773200,11.611773193359374,0.9566426277160645,0.7333413362503052,0.9603537321090698
1718451816265544000,11.6615439453125,0.8687828183174133,0.5910276174545288,0.18423348665237427
1718451816315315000,11.71131494140625,-0.08813279122114182,0.4333663582801819,0.5400906801223755
1718451816365087000,11.7610869140625,-0.3415168523788452,0.05837222933769226,-0.6861466765403748
1718451816414858000,11.81085791015625,-1.4892655611038208,-1.2802579402923584,-2.2145121097564697
1718451816464629000,11.86062890625,-2.1026809215545654,-1.5299721956253052,-2.1972427368164062
1718451816514400000,11.91039990234375,-1.8671879768371582,1.0582911968231201,-2.4945356845855713
1718451816564171000,11.9601708984375,-1.390127420425415,-0.35827159881591797,-1.0175869464874268
1718451816613942300,12.0099423828125,-1.2373640537261963,-0.8362544178962708,-0.7094075083732605
1718451816663714000,12.059714111328125,-1.0596113204956055,-2.135143995285034,-0.1828121542930603
1718451816713485000,12.109485107421875,-0.3457805812358856,-0.26991429924964905,0.6163188815116882
1718451816763256000,12.159256103515625,0.8205854296684265,-0.5676410794258118,1.2602618932724
1718451816813027000,12.209027099609376,-1.466323733329773,0.5109477043151855,-1.3325775861740112
1718451816862798000,12.258798095703124,-0.8796695470809937,0.178949236869812,0.21958908438682556
1718451816912569000,12.308569091796874,1.8030610084533691,-0.9010680317878723,1.0371792316436768
1718451816962341000,12.358341064453125,0.3407866060733795,-0.5925336480140686,0.21499432623386383
1718451817012112100,12.408112060546875,1.8319091796875,0.6033300757408142,1.1188595294952393
1718451817061883000,12.4578828125,1.5504947900772095,-0.012597284279763699,1.4870468378067017
1718451817111654000,12.50765380859375,0.825398325920105,-0.7576735615730286,1.5671008825302124
1718451817161425000,12.5574248046875,0.9475348591804504,0.3102231025695801,1.3136955499649048
1718451817211195600,12.607195556640624,0.5927674770355225,1.7752211093902588,1.1966400146484375
1718451817260967700,12.6569677734375,0.9396332502365112,-0.1629633605480194,0.8002482056617737
1718451817310738700,12.70673876953125,0.782814621925354,0.9564407467842102,0.586675226688385
1718451817360510000,12.756510009765625,0.3445400595664978,0.3402353525161743,-0.17621257901191711
1718451817410280700,12.80628076171875,-0.6001721024513245,-0.05174228921532631,-0.15498985350131989
1718451817460051700,12.8560517578125,-1.3478004932403564,-0.9124069809913635,-1.7650147676467896
1718451817509822700,12.90582275390625,-1.9935251474380493,-1.9531739950180054,-2.539153575897217
1718451817559594800,12.9555947265625,-2.058954954147339,1.6879143714904785,-2.3227202892303467
1718451817609365800,13.00536572265625,-1.419189453125,1.4701242446899414,-1.4516427516937256
1718451817659136800,13.05513671875,-1.2469868659973145,-0.8178471922874451,-0.10055776685476303
1718451817708907800,13.10490771484375,-0.9403744339942932,-1.372568130493164,-0.06680300086736679
1718451817758678800,13.1546787109375,-0.5381721258163452,-0.9040201306343079,0.5107338428497314
1718451817808449800,13.20444970703125,0.8515319228172302,-0.6862838268280029,1.2488569021224976
1718451817858220800,13.254220703125,-0.6778717041015625,-1.2694404125213623,-1.0805336236953735
1718451817907992800,13.303992919921875,-0.9721680283546448,-0.5039470195770264,-0.045221805572509766
1718451817957763600,13.353763671875,1.892819881439209,0.2764217257499695,0.7119361758232117
1718451818007534800,13.403534912109375,-0.5287591814994812,0.010500578209757805,-0.6839104294776917
1718451818057305900,13.453305908203125,2.0883262157440186,0.8168298602104187,1.7398103475570679
1718451818107076600,13.50307666015625,2.106813669204712,-0.4367043673992157,0.4046953022480011
1718451818156847600,13.55284765625,0.8649867177009583,-0.21209654211997986,2.1264851093292236
1718451818206618600,13.60261865234375,0.9066710472106934,0.8360986113548279,1.1976784467697144
1718451818256389600,13.6523896484375,0.6019593477249146,2.6245625019073486,1.1734117269515991
1718451818306161700,13.70216162109375,0.8157339692115784,0.7533779144287109,0.6765222549438477
1718451818355932700,13.7519326171875,1.2165393829345703,1.6483291387557983,0.8024733066558838
1718451818405703400,13.801703369140625,0.4614938497543335,0.7349382042884827,-0.34572145342826843
1718451818455474700,13.851474609375,-0.25559476017951965,0.3979678750038147,0.5656726956367493
1718451818505245700,13.90124560546875,-0.5216173529624939,-0.2112555205821991,-0.8384392857551575
1718451818555016400,13.951016357421874,-1.6806581020355225,-0.9211349487304688,-2.261979341506958
1718451818604787700,14.00078759765625,-2.1572225093841553,-1.564353108406067,-1.6158074140548706
1718451818654558700,14.050558837890625,-1.9638298749923706,1.112255334854126,-2.5496726036071777
1718451818704329700,14.100329833984375,-1.4358997344970703,-0.6281664371490479,-0.4870937466621399
1718451818754100500,14.1501005859375,-1.287467360496521,-0.8295760154724121,-0.4046255052089691
1718451818803871700,14.199871826171876,-1.0775983333587646,-2.2232565879821777,0.2590549886226654
1718451818853643800,14.249643798828124,-0.013573865406215191,-0.3126881420612335,0.6952477693557739
1718451818903414800,14.299414794921875,0.9356516003608704,-0.9673490524291992,1.157069206237793
1718451818953185500,14.349185546875,-2.799872875213623,1.3065739870071411,-0.5409830808639526
1718451819002956500,14.39895654296875,-0.4162057340145111,0.8122601509094238,0.5138375163078308
1718451819052727800,14.448727783203125,1.914937138557434,-1.3489822149276733,0.9122069478034973
1718451819102498600,14.49849853515625,0.6027691960334778,-0.07620236277580261,0.26909032464027405
1718451819152269800,14.548269775390626,1.64176607131958,0.6163675785064697,1.2344987392425537
1718451819202040800,14.598040771484374,1.492548942565918,1.0073432922363281,1.553240180015564
1718451819251812000,14.64781201171875,0.8444737195968628,-0.17757532000541687,1.2935329675674438
1718451819301582800,14.697582763671875,0.8099461197853088,1.7781774997711182,0.867541491985321
1718451819351353900,14.747353759765625,0.9559057354927063,1.1693674325942993,0.9277273416519165
1718451819401124900,14.797124755859375,1.227600336074829,1.0024555921554565,0.8584686517715454
1718451819450896000,14.846895751953125,0.8082898855209351,0.7277740240097046,0.013728861697018147
1718451819500667000,14.8966669921875,0.003421895671635866,0.3301480710506439,0.3973678648471832
1718451819550438000,14.94643798828125,-0.5538544058799744,0.07230029255151749,-1.1194297075271606
1718451819600209000,14.996208984375,-2.077754497528076,-0.9007625579833984,-2.3110997676849365
1718451819649980000,15.04597998046875,-2.0736281871795654,-1.1168698072433472,-1.7792994976043701
1718451819699751000,15.0957509765625,-1.7819583415985107,1.21071195602417,-2.358347177505493
1718451819749522000,15.14552197265625,-1.3635566234588623,-0.49765318632125854,-0.36569541692733765
1718451819799293000,15.19529296875,-1.1562929153442383,-0.9631630778312683,-0.27005091309547424
1718451819849064000,15.24506396484375,-0.9012331366539001,-1.932721734046936,0.29539036750793457
1718451819898835000,15.2948349609375,0.13983353972434998,0.129691943526268,0.7349134087562561
1718451819948607000,15.34460693359375,0.7915782928466797,-0.8479925394058228,0.9920589327812195
1718451819998377700,15.394377685546875,-3.053412675857544,1.4590023756027222,-0.43946951627731323
1718451820048149000,15.44414892578125,-0.422004759311676,0.2186916023492813,0.6857267022132874
1718451820097920000,15.493919921875,1.6476818323135376,-1.0726882219314575,0.5030631422996521
1718451820147690800,15.543690673828126,0.9584841728210449,0.2092307209968567,0.5223590731620789
1718451820197460700,15.593460693359376,2.7206406593322754,0.6337409615516663,1.0749093294143677
1718451820247231700,15.643231689453126,1.4948745965957642,0.06207855045795441,1.8658140897750854
1718451820297002800,15.693002685546874,0.8316943049430847,-0.07544815540313721,1.128917932510376
1718451820346773800,15.742773681640625,0.6701823472976685,1.7305302619934082,0.9413810968399048
1718451820396544800,15.792544677734375,0.7745106220245361,1.2533557415008545,0.7895374894142151
1718451820446315800,15.842315673828125,1.2380836009979248,1.0619112253189087,0.9675016403198242
1718451820496086800,15.892086669921875,0.8246893882751465,0.8081095814704895,-0.2251787930727005
1718451820545857800,15.94185791015625,-0.03627118840813637,0.42616063356399536,0.4612770676612854
1718451820595628800,15.99162890625,-0.6634970307350159,-0.1976960301399231,-0.8085745573043823
1718451820645399800,16.04139990234375,-1.912170648574829,-1.1206600666046143,-2.224886417388916
1718451820695170600,16.091170654296874,-2.201046943664551,-1.3700224161148071,-1.7105244398117065
1718451820744941800,16.14094189453125,-1.8425545692443848,1.4382840394973755,-2.4403066635131836
1718451820794712800,16.190712890625,-1.2765895128250122,-0.45157837867736816,-0.8138447403907776
1718451820844483800,16.24048388671875,-1.1158722639083862,-1.4244612455368042,-0.6682196259498596
1718451820894254600,16.290254638671875,-1.0048210620880127,-1.8251968622207642,0.08930084854364395
1718451820944025900,16.34002587890625,-0.17816494405269623,0.018453309312462807,0.8415123224258423
1718451820993796900,16.389796875,0.872552216053009,-0.6541666388511658,1.4768993854522705
1718451821043567600,16.439567626953124,-2.755424737930298,0.40764153003692627,-0.719464123249054
1718451821093338600,16.489338623046876,-0.14526265859603882,1.1279802322387695,0.3219250440597534
1718451821143110100,16.539110107421877,-0.15952947735786438,0.5821568965911865,-0.29804155230522156
1718451821192880000,16.588880126953125,1.5216213464736938,0.5776612162590027,1.2727047204971313
1718451821242651100,16.638651123046873,1.8662540912628174,-0.15107686817646027,1.1346381902694702
1718451821292422100,16.688422119140625,1.0005581378936768,-0.1417619287967682,1.2523376941680908
1718451821342193200,16.738193115234374,1.0768263339996338,0.01900991052389145,1.4742199182510376
1718451821391964200,16.787964111328126,0.9981658458709717,1.656943440437317,1.2322680950164795
1718451821441735000,16.83773486328125,0.9837754368782043,0.264427125453949,0.798366129398346
1718451821491506200,16.887506103515626,1.1439568996429443,1.084597110748291,0.9154360294342041
1718451821541277200,16.937277099609375,0.6291552782058716,0.9617239236831665,-0.39821314811706543
1718451821591048200,16.987048095703123,-0.07109574973583221,0.5752334594726562,0.3026232421398163
1718451821640818200,17.036818115234375,-0.8281586766242981,-0.41557562351226807,-0.9921460151672363
1718451821690589200,17.086589111328124,-2.069357395172119,-1.2436943054199219,-2.3919341564178467
1718451821740360000,17.13635986328125,-2.1582791805267334,-0.8247498273849487,-1.8229414224624634
1718451821790131200,17.186131103515624,-1.9157353639602661,1.6451611518859863,-2.2082552909851074
1718451821839902200,17.235902099609376,-1.215343713760376,-0.8386113047599792,-0.3382140100002289
1718451821889673200,17.285673095703125,-1.1945449113845825,-1.3152856826782227,-0.4280956983566284
1718451821939443200,17.335443115234376,-0.7387233376502991,-2.0274202823638916,0.3523836135864258
1718451821989214200,17.385214111328125,-0.020198479294776917,-0.4386862814426422,0.8431653380393982
1718451822038985200,17.434985107421873,1.0602062940597534,-1.0208841562271118,1.326447606086731
1718451822088756000,17.484755859375,-2.4097516536712646,0.5571455359458923,-0.6384103298187256
1718451822138526700,17.534526611328126,-0.44610026478767395,0.7033568024635315,0.4084562063217163
1718451822188297700,17.584297607421874,0.6038086414337158,-0.15617814660072327,0.39681899547576904
1718451822238068000,17.63406787109375,0.9276431798934937,0.7134917378425598,0.553735077381134
1718451822287838700,17.683838623046874,2.533186197280884,0.38112765550613403,0.8518807888031006
1718451822337609700,17.733609619140626,1.3067893981933594,0.4907050132751465,2.148846387863159
1718451822387380700,17.783380615234375,0.863214910030365,0.10248482972383499,1.153773307800293
1718451822437151700,17.83315185546875,0.8440675735473633,1.157747745513916,1.1028512716293335
1718451822486921700,17.882921630859375,0.9057897925376892,1.0600789785385132,0.9129214882850647
1718451822536692700,17.932692626953123,1.199223518371582,1.0007597208023071,0.9623031616210938
1718451822586463700,17.982463623046876,0.9259470105171204,0.9919862151145935,-0.1837807446718216
1718451822636234800,18.03223486328125,-0.10033805668354034,0.4108208119869232,0.2929037809371948
1718451822686005800,18.082005859375,-0.4438844919204712,-0.2461402714252472,-0.7657850384712219
1718451822735775700,18.131775634765624,-1.9679183959960938,-1.4792011976242065,-2.084181547164917
1718451822785546800,18.181546630859376,-2.105772018432617,-1.3333286046981812,-1.9272979497909546
1718451822835317800,18.23131787109375,-1.8201481103897095,0.8769422173500061,-2.5200047492980957
1718451822885088800,18.2810888671875,-1.3352642059326172,0.13139717280864716,-1.1567535400390625
1718451822934858800,18.330858642578125,-1.2369767427444458,-1.1146066188812256,-0.11111613363027573
1718451822984629800,18.380629638671873,-1.0890445709228516,-1.7008233070373535,0.10574986785650253
1718451823034400800,18.43040087890625,-0.0414411835372448,-0.013934457674622536,0.7923173308372498
1718451823084171800,18.480171875,0.6470128297805786,-1.3661280870437622,0.9338344931602478
1718451823133941800,18.529941650390626,-2.0506534576416016,0.30466482043266296,-0.7480563521385193
1718451823183712500,18.57971240234375,-0.1263323724269867,0.2676317095756531,0.17390361428260803
1718451823233483500,18.6294833984375,0.44464111328125,-0.670583963394165,0.7062159776687622
1718451823283253500,18.67925341796875,0.7620861530303955,0.9692872762680054,0.6797409653663635
1718451823333024500,18.7290244140625,2.352015495300293,0.13553784787654877,0.4177415668964386
1718451823382795500,18.77879541015625,1.4157263040542603,-0.23236532509326935,2.125063419342041
1718451823432566500,18.82856640625,0.8067197203636169,0.5380269885063171,1.417236566543579
1718451823482336500,18.87833642578125,0.8638237118721008,1.0535763502120972,0.8527303338050842
1718451823532107500,18.928107421875,1.0232701301574707,1.0964452028274536,1.257039189338684
1718451823581878800,18.977878662109376,1.1520408391952515,0.4282320439815521,0.6660182476043701
1718451823631648500,19.0276484375,0.9490706920623779,0.7001495957374573,0.48719522356987
1718451823681419500,19.07741943359375,0.34324896335601807,0.36208364367485046,0.02997174672782421
1718451823731190500,19.1271904296875,0.11172839254140854,-0.011037470772862434,-0.5938636064529419
1718451823780960500,19.17696044921875,-1.2187376022338867,-1.290591835975647,-1.4558182954788208
1718451823830731500,19.2267314453125,-1.9501582384109497,-0.5990599989891052,-2.5571634769439697
1718451823880502500,19.27650244140625,-2.2547531127929688,0.15575070679187775,-1.4949166774749756
1718451823930272500,19.3262724609375,-1.6788673400878906,0.6622748970985413,-1.9922453165054321
1718451823980043800,19.376043701171874,-1.3941075801849365,-0.7864197492599487,0.16053268313407898
1718451824029814500,19.425814453125,-1.4020509719848633,-0.9323151707649231,0.10198974609375
1718451824079584500,19.47558447265625,-0.9400481581687927,-2.618701457977295,0.4177679419517517
1718451824129355800,19.525355712890626,0.5366357564926147,-1.4547463655471802,1.0561518669128418
1718451824179126800,19.575126708984374,0.36889389157295227,-2.041827917098999,0.17720966041088104
1718451824228896500,19.624896484375,-1.0181933641433716,0.6699330806732178,-0.5834413170814514
1718451824278667800,19.674667724609375,0.29289552569389343,1.933755874633789,0.2823656499385834
1718451824328437500,19.7244375,-0.7837488651275635,1.0495789051055908,-1.0754393339157104
1718451824378208500,19.77420849609375,2.090444564819336,0.28400829434394836,1.52498197555542
1718451824427979800,19.823979736328123,1.968291163444519,0.9579834938049316,0.33468636870384216
1718451824477749500,19.87374951171875,1.1824440956115723,0.2927522361278534,2.4523448944091797
1718451824527520800,19.923520751953124,0.8587080836296082,0.11458250135183334,1.0472819805145264
1718451824577290500,19.97329052734375,0.7428176999092102,1.8373984098434448,1.1372065544128418
1718451824627061500,20.0230615234375,1.0533385276794434,0.7625287771224976,0.5908776521682739
1718451824676832800,20.072832763671876,1.1360597610473633,1.1884242296218872,0.7385555505752563
1718451824726602500,20.1226025390625,0.4989203214645386,0.660877525806427,-0.2499384582042694
1718451824776373500,20.17237353515625,-0.20813189446926117,0.33465149998664856,0.3988512456417084
1718451824826143700,20.222143798828125,-0.8194919228553772,0.05506138876080513,-1.2156422138214111
1718451824875914500,20.27191455078125,-2.192915916442871,-0.44422033429145813,-2.6505167484283447
1718451824925684700,20.321684814453125,-2.2899110317230225,-0.7672969102859497,-1.6884318590164185
1718451824975455500,20.37145556640625,-1.8147605657577515,1.441536545753479,-2.5801920890808105
1718451825025226500,20.4212265625,-1.1923142671585083,-0.8639954924583435,-0.3961039185523987
1718451825074996700,20.470996826171874,-1.0242501497268677,-1.2921169996261597,-0.23685967922210693
1718451825124767500,20.520767578125,-0.7948696613311768,-1.527366042137146,0.3133445978164673
1718451825174537500,20.570537353515626,-0.03429379314184189,0.1612861007452011,0.9367607831954956
1718451825224308500,20.62030859375,0.3096843659877777,-1.4852970838546753,0.8069886565208435
1718451825274078700,20.67007861328125,-1.0020627975463867,0.7773191928863525,-0.6053565144538879
1718451825323849500,20.719849365234374,-0.4014345109462738,0.36881956458091736,0.6610756516456604
1718451825373619500,20.769619384765626,1.763482928276062,-0.5335204005241394,0.9222404360771179
1718451825423390700,20.819390625,0.3172765076160431,-0.16625981032848358,0.035836029797792435
1718451825473160400,20.869160400390626,2.059443712234497,1.104469895362854,1.0515350103378296
1718451825522931500,20.918931396484375,1.4116586446762085,0.684404194355011,1.8447767496109009
1718451825572701400,20.968701416015627,0.8551908135414124,0.09621068835258484,0.9753145575523376
1718451825622472400,21.018472412109375,0.7621985673904419,1.710121989250183,0.9169564247131348
1718451825672242400,21.068242431640623,1.0427697896957397,0.919169545173645,0.7583186030387878
1718451825722013400,21.118013427734375,1.3287527561187744,1.088491678237915,0.8735016584396362
1718451825771783700,21.16778369140625,0.5484780073165894,0.9259888529777527,-0.07709558308124542
1718451825821554400,21.217554443359376,0.20418402552604675,0.5477677583694458,0.21981757879257202
1718451825871324400,21.267324462890624,-0.19951656460762024,0.03780011087656021,-0.6414614915847778
1718451825921095700,21.317095703125,-1.9849343299865723,-1.3314836025238037,-2.0449936389923096
1718451825970865400,21.366865478515624,-2.322497844696045,-1.790923833847046,-2.1061203479766846
1718451826020636700,21.41663671875,-1.9411711692810059,1.3816436529159546,-2.086794853210449
1718451826070406400,21.466406494140625,-1.3988183736801147,-0.36544108390808105,-1.2376481294631958
1718451826120177400,21.516177490234377,-1.3078129291534424,-0.759657084941864,0.13457325100898743
1718451826169947600,21.56594775390625,-1.0631961822509766,-2.198451280593872,0.2613152265548706
1718451826219718400,21.615718505859373,-0.13029728829860687,-0.5270316004753113,0.7124709486961365
1718451826269488600,21.665488525390625,0.9633708000183105,-0.738283097743988,1.5513288974761963
1718451826319259600,21.715259765625,-2.3101089000701904,0.8847138285636902,-0.29507237672805786
1718451826369029600,21.765029541015625,-0.6961582899093628,-0.006853645201772451,0.5201542377471924
1718451826418799600,21.814799560546874,1.748154878616333,-0.40290671586990356,0.4428013861179352
1718451826468570400,21.8645703125,0.7861313223838806,-0.37383216619491577,0.3439408540725708
1718451826518340600,21.914340576171874,2.0457167625427246,0.5171903967857361,1.2324256896972656
1718451826568111600,21.964111572265626,1.3553601503372192,1.7905675172805786,2.281451940536499
1718451826617881600,22.013881591796874,0.758611798286438,-0.13259373605251312,0.911999523639679
1718451826667652600,22.063652587890626,0.7503027319908142,1.982703685760498,1.019120693206787
1718451826717422600,22.113422607421874,1.02684485912323,0.45101964473724365,0.5976541042327881
1718451826767192600,22.163192626953126,1.2903149127960205,1.0527316331863403,1.060836911201477
1718451826816963300,22.21296337890625,0.7162784934043884,0.9648416638374329,-0.2740171551704407
1718451826866733600,22.262733642578127,-0.038295190781354904,0.1243741512298584,0.23531238734722137
1718451826916504600,22.312504638671875,-0.9832382798194885,-0.1975008249282837,-1.1076622009277344
1718451826966274600,22.362274658203123,-2.1553115844726562,-0.5306209921836853,-2.4563333988189697
1718451827016044500,22.41204443359375,-2.1727182865142822,-0.7689943909645081,-1.6776039600372314
1718451827065815600,22.461815673828124,-1.7977585792541504,1.89841628074646,-2.5321240425109863
1718451827115585300,22.511585205078124,-1.2514023780822754,-1.0731860399246216,-0.4795365035533905
1718451827165355300,22.561355224609375,-0.9224742650985718,-1.3696576356887817,-0.3498069941997528
1718451827215126300,22.611126220703124,-0.7964406609535217,-1.398177146911621,0.2065475881099701
1718451827264896300,22.660896240234376,0.1388590782880783,0.46600738167762756,1.0348896980285645
1718451827314666200,22.710666259765624,0.8487268090248108,-1.2065690755844116,0.7926230430603027
1718451827364437200,22.760437255859376,-1.4918208122253418,-0.667158842086792,-1.0948559045791626
1718451827414207200,22.810207275390624,0.4243091940879822,1.782368540763855,0.3415951430797577
1718451827463978200,22.859978271484376,0.4060034453868866,1.322941780090332,0.4271707832813263
1718451827513748200,22.909748291015624,1.4160823822021484,0.7678229212760925,0.9179546236991882
1718451827563518200,22.959518310546876,1.6802879571914673,-0.7581758499145508,1.0961520671844482
1718451827613289500,23.00928955078125,0.8977736830711365,1.1287360191345215,1.3542804718017578
1718451827663059200,23.05905908203125,0.9977503418922424,-0.03811036795377731,1.3285144567489624
1718451827712829400,23.108829345703125,1.018630027770996,2.1660594940185547,0.9325127601623535
1718451827762599200,23.15859912109375,1.1909904479980469,0.3552457094192505,0.5389628410339355
1718451827812370200,23.2083701171875,1.2710762023925781,0.7306947112083435,0.7970918416976929
1718451827862140200,23.25814013671875,0.6153438687324524,0.568081796169281,-0.17407166957855225
1718451827911910400,23.307910400390625,0.06499923765659332,0.317176878452301,-0.015418104827404022
1718451827961681400,23.357681396484374,-1.1573964357376099,-0.2951086163520813,-1.398556113243103
1718451828011451100,23.407451171875,-2.342221975326538,-0.9897659420967102,-2.581249713897705
1718451828061221400,23.457221435546874,-2.0986456871032715,0.000005060006060375599,-1.6595616340637207
1718451828110992100,23.5069921875,-1.6859517097473145,1.3168071508407593,-2.2636101245880127
1718451828160763100,23.55676318359375,-1.2827283143997192,-0.8175108432769775,-0.07650675624608994
1718451828210532900,23.606532958984374,-0.9904162883758545,-1.5513544082641602,-0.29133009910583496
1718451828260303000,23.65630322265625,-0.6861456036567688,-0.8483076095581055,0.5166199803352356
1718451828310074000,23.70607421875,0.42317575216293335,0.34592384099960327,1.2635713815689087
1718451828359844000,23.755843994140626,0.5609512329101562,-2.3895020484924316,-0.36158111691474915
1718451828409614000,23.805614013671875,-1.4358054399490356,-0.19735302031040192,-0.8359593152999878
1718451828459384000,23.855384033203126,0.9429116249084473,0.723338782787323,0.5751554369926453
1718451828509155000,23.905155029296875,0.10870064795017242,0.5452723503112793,-0.7280834913253784
1718451828558924800,23.9549248046875,2.619476795196533,-0.4158283770084381,1.6173866987228394
1718451828608695000,24.004695068359375,1.111053228378296,0.20497950911521912,1.4846233129501343
1718451828658465000,24.054465087890627,1.0712264776229858,-0.4489322602748871,1.3158878087997437
1718451828708236000,24.104236083984375,1.133620262145996,-0.08564779162406921,1.2195311784744263
1718451828758006000,24.154006103515623,0.5011560320854187,2.675201416015625,1.0196481943130493
1718451828807776000,24.20377587890625,0.9870074391365051,-0.26748764514923096,0.797085702419281
1718451828857546000,24.2535458984375,1.2300456762313843,1.1266311407089233,0.6322267055511475
1718451828907317000,24.30331689453125,0.4106599688529968,0.8511806130409241,-0.17680034041404724
1718451828957087000,24.3530869140625,-0.19414018094539642,0.3008303940296173,-0.20715318620204926
1718451829006857000,24.40285693359375,-1.0700783729553223,-0.18426251411437988,-1.6345124244689941
1718451829056627000,24.452626953125,-1.9774818420410156,-1.1131783723831177,-2.9498000144958496
1718451829106397000,24.50239697265625,-2.1056196689605713,0.11226662248373032,-1.6244195699691772
1718451829156168000,24.55216796875,-1.8693068027496338,1.0201845169067383,-2.2576379776000977
1718451829205938000,24.60193798828125,-1.3543354272842407,-0.44007644057273865,0.08618548512458801
1718451829255708000,24.6517080078125,-1.1953787803649902,-1.6185041666030884,0.012531504034996033
1718451829305478000,24.701477783203124,-0.7044116854667664,-1.674930214881897,0.3425690531730652
1718451829355247900,24.751247802734376,0.38436925411224365,-0.10870863497257233,0.9896186590194702
1718451829405019000,24.801018798828125,0.4198553264141083,-1.0306342840194702,0.4641572833061218
1718451829454788900,24.850788818359376,-1.3406299352645874,-1.0315996408462524,-0.5504141449928284
1718451829504558800,24.900558837890625,0.6367205381393433,1.558101773262024,0.8889272212982178
1718451829554328800,24.950328857421876,0.5812191963195801,0.358005553483963,-0.31378641724586487
1718451829604098800,25.000098876953125,1.0694568157196045,0.9153931736946106,1.295013427734375
1718451829653868800,25.049868896484377,1.931599497795105,-0.007135673891752958,1.2592376470565796
1718451829703640000,25.09964013671875,1.3372011184692383,1.7467042207717896,2.0864439010620117
1718451829753409800,25.149409912109373,1.1652839183807373,-0.36810240149497986,1.2320080995559692
1718451829803180000,25.199179931640625,0.7284416556358337,2.649728536605835,0.9781470894813538
1718451829852949800,25.24894970703125,0.9991165399551392,0.7087798118591309,0.22918765246868134
1718451829902720000,25.298719970703125,1.1542550325393677,0.9737478494644165,0.8306524753570557
1718451829952489700,25.34848974609375,0.41165173053741455,0.5880028009414673,-0.19085676968097687
1718451830002260000,25.398260009765625,-0.07930228114128113,-0.403475284576416,-0.29750970005989075
1718451830052030700,25.44803076171875,-1.5139636993408203,-0.8179907202720642,-1.610247015953064
1718451830101801000,25.497801025390626,-2.051872968673706,-1.1197785139083862,-2.730653762817383
1718451830151570400,25.5475703125,-2.1761486530303955,0.926051676273346,-1.7484813928604126
1718451830201340400,25.59734033203125,-1.5408488512039185,0.48010003566741943,-2.0380918979644775
1718451830251110400,25.6471103515625,-1.315476417541504,-1.2739814519882202,-0.015860455110669136
1718451830300880400,25.69688037109375,-1.2220401763916016,-2.1988437175750732,-0.057730406522750854
1718451830350650400,25.746650390625,-0.7019863724708557,-1.1953390836715698,0.6481289863586426
1718451830400420400,25.79642041015625,0.3395666182041168,0.24966415762901306,1.4693917036056519
1718451830450190300,25.8461904296875,0.7824950218200684,-0.709601104259491,0.15391100943088531
1718451830499960300,25.895960205078126,-1.3738712072372437,-0.7389720678329468,-0.7579929232597351
1718451830549731600,25.945731689453126,0.9943798780441284,1.242872714996338,0.8483912348747253
1718451830599501300,25.995501220703126,0.2006465494632721,0.7344934344291687,-0.325878769159317
1718451830649271600,26.045271484375,1.3343260288238525,0.9212476015090942,1.3518033027648926
1718451830699041300,26.095041259765626,1.4612959623336792,-0.3766902983188629,0.8974940776824951
1718451830748811500,26.1448115234375,1.0290601253509521,0.12602584064006805,1.4143805503845215
1718451830798581200,26.194581298828126,1.0556410551071167,0.12240900099277496,1.195622444152832
1718451830848351500,26.2443515625,0.7482654452323914,2.092383861541748,1.0436192750930786
1718451830898121500,26.29412158203125,1.1000040769577026,-0.31907838582992554,0.5619685053825378
1718451830947891500,26.343891357421874,1.2509373426437378,1.3077361583709717,0.737612247467041
1718451830997661400,26.393661376953126,0.491488516330719,0.36546453833580017,-0.1242564395070076
1718451831047431400,26.443431396484375,-0.15578027069568634,0.06629779934883118,-0.388233482837677
1718451831097201400,26.493201416015626,-1.324296474456787,-1.2813339233398438,-1.348882794380188
1718451831146971600,26.5429716796875,-2.1360702514648438,-1.1270835399627686,-2.5583629608154297
1718451831196741600,26.59274169921875,-2.1744298934936523,0.27460891008377075,-1.6288909912109375
1718451831246511600,26.64251171875,-1.7110000848770142,1.0520538091659546,-1.8677473068237305
1718451831296281600,26.692281494140627,-1.2956507205963135,-0.9684662222862244,-0.15843944251537323
1718451831346051600,26.742051513671875,-0.8935810923576355,-2.510190010070801,-0.08451062440872192
1718451831395822600,26.791822509765623,-0.7126874923706055,-1.5243427753448486,0.3271387219429016
1718451831445592600,26.841592529296875,0.32990387082099915,0.8090071082115173,1.253847599029541
1718451831495362600,26.891362548828123,0.7030673027038574,-0.9781572222709656,0.5568616390228271
1718451831545132500,26.941132568359375,-1.5291393995285034,-0.29318100214004517,-0.933452308177948
1718451831594902500,26.990902587890623,0.34943708777427673,1.5835142135620117,0.49407443404197693
1718451831644672500,27.040672607421875,0.44093239307403564,0.563069760799408,0.22492551803588867
1718451831694442800,27.09044287109375,1.4129915237426758,0.743656575679779,1.3154923915863037
1718451831744212700,27.140212646484375,1.5642012357711792,-0.2564094066619873,0.9529520273208618
1718451831793982700,27.189982666015624,1.1301294565200806,0.36611488461494446,1.4784514904022217
1718451831843752700,27.239752685546875,1.2298732995986938,0.07915260642766953,1.3197427988052368
1718451831893522700,27.289522705078124,0.6852191090583801,2.3824777603149414,0.8700523376464844
1718451831943292700,27.339292724609376,0.9917422533035278,0.14219681918621063,0.5378733277320862
1718451831993062700,27.389062744140624,1.1449658870697021,1.15095055103302,0.6693500876426697
1718451832042831600,27.43883154296875,0.5377827882766724,0.6035301089286804,-0.1790166199207306
1718451832092601600,27.4886015625,-0.19516070187091827,-0.3678981363773346,-0.26750361919403076
1718451832142371300,27.538371337890624,-1.541946530342102,-1.0218716859817505,-1.5304707288742065
1718451832192141600,27.5881416015625,-1.94474458694458,-0.887349009513855,-2.679314136505127
1718451832241911300,27.637911376953124,-2.0861263275146484,0.777513861656189,-1.7089341878890991
1718451832291681500,27.687681640625,-1.6825894117355347,0.5175424814224243,-2.001124858856201
1718451832341451500,27.737451416015624,-1.2374322414398193,-0.6577206254005432,-0.03178376331925392
1718451832391221500,27.787221435546876,-0.9712732434272766,-2.062317132949829,-0.027165841311216354
1718451832440991500,27.836991455078124,-0.6419874429702759,-1.3237873315811157,0.4559081494808197
1718451832490761500,27.886761474609376,0.31102046370506287,0.5324891805648804,1.3687734603881836
1718451832540531500,27.936531494140624,0.35072073340415955,-2.2898144721984863,-0.6013196706771851
1718451832590301400,27.986301513671876,-1.377179741859436,-0.5112582445144653,-1.0202826261520386
1718451832640071400,28.036071533203124,1.0984481573104858,0.7184734344482422,-0.8587730526924133
1718451832689841400,28.08584130859375,1.1821519136428833,1.373752236366272,0.38243046402931213
1718451832739611400,28.135611328125,2.1785402297973633,0.4113111197948456,1.6157424449920654
1718451832789381600,28.185381591796876,1.3634185791015625,0.2725284695625305,0.9924631714820862
1718451832839151400,28.2351513671875,0.7802438735961914,-0.7021656036376953,1.5511810779571533
1718451832888921600,28.284921630859376,1.205355167388916,1.105069637298584,1.3531558513641357
1718451832938691300,28.33469140625,0.7784393429756165,1.3672293424606323,1.06570565700531
1718451832988460500,28.38446044921875,0.7989752292633057,0.17250493168830872,0.37142735719680786
1718451833038230500,28.43423046875,1.102695107460022,0.9229158163070679,0.7339421510696411
1718451833088000500,28.48400048828125,0.6131044030189514,0.023682160302996635,-0.2912028133869171
1718451833137771000,28.53377099609375,-0.05492689833045006,0.39436274766921997,-0.043529100716114044
1718451833187541200,28.583541259765624,-1.0959786176681519,-0.6259129047393799,-1.3791671991348267
1718451833237311200,28.633311279296876,-2.18953537940979,-0.6385453343391418,-2.4589478969573975
1718451833287081200,28.683081298828125,-2.356112003326416,-0.16816264390945435,-1.4456019401550293
1718451833336851200,28.732851318359376,-1.920662760734558,0.8989340662956238,-1.8773152828216553
1718451833386621200,28.78262109375,-1.619962215423584,-1.1360414028167725,0.07340870052576065
1718451833436390100,28.83239013671875,-0.9372007250785828,-2.4505105018615723,-0.20138664543628693
1718451833486160100,28.88216015625,-0.6182594895362854,-0.899145781993866,0.2225358635187149
1718451833535930000,28.93193017578125,0.16844706237316132,0.17387565970420837,1.0563087463378906
1718451833585700000,28.9817001953125,1.2144416570663452,-0.7299535274505615,1.0061827898025513
1718451833635470000,29.031469970703125,-1.7958177328109741,0.777947723865509,-0.9651511311531067
1718451833685240000,29.081239990234376,0.11838123947381973,0.742092490196228,0.26859790086746216
1718451833735010000,29.131010009765625,1.1329559087753296,-0.27193111181259155,0.14725789427757263
1718451833784780000,29.180780029296876,0.46187281608581543,0.6145262718200684,0.584442675113678
1718451833834549200,29.23054931640625,2.2412638664245605,-0.36693644523620605,1.031835675239563
1718451833884319000,29.280319091796876,1.034087061882019,0.615304172039032,1.4052730798721313
1718451833934089200,29.330089111328125,1.1702960729599,0.9099733829498291,1.2551352977752686
1718451833983859000,29.37985888671875,1.091408133506775,1.235735535621643,0.7158188223838806
1718451834033629200,29.429629150390625,0.7026257514953613,1.6888582706451416,0.8438196778297424
1718451834083399200,29.479399169921876,1.2345479726791382,0.5197907090187073,0.8243035078048706
1718451834133167400,29.52916748046875,0.9949878454208374,0.7726301550865173,0.07522577792406082
1718451834182937300,29.578937255859376,0.11098483949899673,0.7011858224868774,0.08053851872682571
1718451834232707600,29.62870751953125,-0.4181530475616455,-0.11098217964172363,-1.0765279531478882
1718451834282477300,29.678477294921876,-1.882047176361084,-1.1429810523986816,-2.285280704498291
1718451834332247600,29.72824755859375,-2.154216766357422,-1.2405617237091064,-1.820417881011963
1718451834382017300,29.778017333984376,-1.9016211032867432,1.1938050985336304,-2.275212526321411
1718451834431786200,29.8277861328125,-1.2812116146087646,-0.49158090353012085,-1.1055066585540771
1718451834481556500,29.877556396484376,-1.2769023180007935,-0.7396538257598877,0.05440385267138481
1718451834531326200,29.927326171875,-1.215854525566101,-1.6731551885604858,0.10068826377391815
1718451834581096400,29.977096435546876,-0.26654142141342163,-0.8197646737098694,1.039771556854248
1718451834630866200,30.0268662109375,0.7510479092597961,-1.4570231437683105,1.2682777643203735
1718451834680635400,30.076635498046876,-0.698536217212677,-0.04338102787733078,-0.32513973116874695
1718451834730405400,30.1264052734375,-0.9420708417892456,-0.21968495845794678,-0.2794675827026367
1718451834780175400,30.17617529296875,1.6935731172561646,0.28090357780456543,1.1015337705612183
1718451834829945300,30.2259453125,0.7224317193031311,-0.7226641774177551,0.5447061657905579
1718451834879715300,30.27571533203125,2.3227720260620117,0.7849962711334229,1.3097388744354248
1718451834929484300,30.325484375,1.3680440187454224,0.7396543622016907,1.583120346069336
1718451834979254500,30.375254638671876,0.9556564688682556,-0.6105483174324036,1.4227367639541626
1718451835029024300,30.425024169921876,0.7365056872367859,1.9630615711212158,0.9620107412338257
1718451835078794500,30.47479443359375,0.896082878112793,0.21703244745731354,0.5891993641853333
1718451835128564700,30.524564697265625,1.1379913091659546,1.102590799331665,0.9332826733589172
1718451835178333700,30.574333740234376,0.9543133974075317,0.6584087610244751,-0.09849435091018677
1718451835228104000,30.62410400390625,-0.02178785391151905,0.2948683798313141,0.43060171604156494
1718451835277873700,30.673873779296876,-0.42202553153038025,-0.2098376452922821,-0.9609705209732056
1718451835327644000,30.723643798828125,-2.0002682209014893,-1.3341059684753418,-2.054640531539917
1718451835377412900,30.773412841796876,-2.3663883209228516,-1.4273773431777954,-1.7415406703948975
1718451835427182600,30.8231826171875,-2.0224568843841553,1.3553167581558228,-1.9772028923034668
1718451835476952800,30.872952880859376,-1.4444737434387207,-0.6040406227111816,-0.379822701215744
1718451835526722600,30.92272265625,-1.2969037294387817,-1.6445342302322388,-0.41397374868392944
1718451835576492800,30.972492919921876,-1.0024564266204834,-2.0198264122009277,0.28567594289779663
1718451835626261800,31.02226171875,-0.11608505994081497,0.584958016872406,0.9310927987098694
1718451835676031700,31.07203173828125,0.5665925741195679,-0.8528770804405212,0.9234564304351807
1718451835725801700,31.1218017578125,-1.9766108989715576,-0.7390186786651611,-0.2790713310241699
1718451835775571700,31.17157177734375,-0.29963332414627075,0.7085012197494507,-0.20852124691009521
1718451835825340700,31.221340576171876,0.5022743344306946,0.16737620532512665,-0.153654545545578
1718451835875111000,31.27111083984375,1.5287327766418457,0.4597100615501404,1.3682937622070312
1718451835924880600,31.320880615234376,2.1954915523529053,-0.18308380246162415,0.6301499605178833
1718451835974649600,31.370649658203124,1.1022778749465942,0.15132667124271393,1.672755479812622
1718451836024419800,31.420419921875,0.9045953750610352,0.12026622146368027,1.3677297830581665
1718451836074189600,31.470189453125,0.7680093050003052,1.9075229167938232,1.147289514541626
1718451836123960000,31.5199599609375,0.9934834241867065,0.52510666847229,0.6674169301986694
1718451836173729000,31.56972900390625,1.1826448440551758,1.2063424587249756,0.6506203413009644
1718451836223499000,31.6194990234375,0.6907944083213806,0.8043705224990845,-0.29704418778419495
1718451836273269000,31.66926904296875,0.13701750338077545,0.42319759726524353,0.37902241945266724
1718451836323039000,31.7190390625,-0.2398754507303238,0.04212455078959465,-0.7987475395202637
1718451836372808000,31.768807861328124,-1.6946027278900146,-1.4338613748550415,-1.8777644634246826
1718451836422578200,31.818578125,-2.243457078933716,-1.4810842275619507,-1.732017993927002
1718451836472348000,31.868347900390624,-2.2074124813079834,0.9005497694015503,-1.7533982992172241
1718451836522116900,31.918116943359376,-1.5941500663757324,-0.5747959017753601,-0.22313109040260315
1718451836571887000,31.96788720703125,-1.3134747743606567,-0.8445608019828796,-0.1406647115945816
1718451836621656800,32.01765673828125,-0.9358305335044861,-2.472773313522339,0.041671548038721085
1718451836671427000,32.06742700195313,-0.19376280903816223,-0.06538859009742737,0.6013481616973877
1718451836721196000,32.117196044921876,1.256140112876892,-0.6208587288856506,1.1144706010818481
1718451836770966000,32.16696606445313,-3.045642852783203,1.9038400650024414,-0.14837881922721863
1718451836820736000,32.21673608398437,-0.5020862817764282,0.4859672486782074,0.5584605932235718
1718451836870505200,32.26650512695313,2.0077950954437256,-1.1228286027908325,0.8191486597061157
1718451836920275000,32.31627490234375,0.7361041307449341,-0.40402042865753174,0.6355295777320862
1718451836970045200,32.366045166015624,2.076510429382324,-0.2518647313117981,1.53090238571167
1718451837019814000,32.41581396484375,1.1937190294265747,1.596932291984558,1.3123546838760376
1718451837069584000,32.465583984375,1.216017246246338,-0.5651278495788574,1.270189881324768
1718451837119354000,32.51535400390625,0.8030237555503845,2.3889694213867188,1.05165433883667
1718451837169122800,32.56512280273437,0.7543688416481018,0.7653692960739136,0.45425352454185486
1718451837218892800,32.614892822265624,1.1439863443374634,1.0001200437545776,0.9199509024620056
1718451837268663000,32.6646630859375,0.7543116211891174,0.8407399654388428,-0.25388020277023315
1718451837318431700,32.714431640625,0.005849367007613182,0.3074457049369812,0.3285562992095947
1718451837368202000,32.764201904296876,-1.2631112337112427,-0.31976866722106934,-1.1663843393325806
1718451837417972000,32.81397192382813,-1.9292809963226318,-0.2925804555416107,-2.860276460647583
1718451837467740700,32.86374072265625,-1.7329705953598022,0.07653259485960007,-1.6602119207382202
1718451837517511000,32.91351098632813,-1.6742981672286987,1.4413219690322876,-2.37650728225708
1718451837567281000,32.96328100585937,-1.3181973695755005,-0.09541040658950806,-0.3164122998714447
1718451837617049900,33.0130498046875,-0.9769548177719116,-1.341910719871521,-0.19036515057086945
1718451837666819800,33.06281982421875,-0.9086423516273499,-0.824276864528656,0.25607386231422424
1718451837716589800,33.11258984375,-0.01176424790173769,0.27511945366859436,0.9005889296531677
1718451837766358800,33.16235888671875,0.6811630725860596,-1.736302137374878,0.5230078101158142
1718451837816129000,33.21212890625,-1.5813066959381104,0.07233811169862747,-1.002470850944519
1718451837865898800,33.26189868164062,0.7029176354408264,1.002252459526062,0.32541778683662415
1718451837915667700,33.31166772460937,0.1634746789932251,1.3856056928634644,-0.8403285145759583
1718451837965438000,33.36143798828125,2.3747124671936035,1.227903962135315,1.237682580947876
1718451838015207000,33.41120703125,1.543147325515747,-1.1565916538238525,1.2055714130401611
1718451838064977000,33.46097680664062,0.9856089949607849,1.289906620979309,0.9594325423240662
1718451838114747000,33.510746826171875,0.9322097301483154,0.5758286714553833,0.7928094863891602
1718451838164515300,33.56051538085938,0.8544086217880249,2.121208667755127,0.9503540992736816
1718451838214285300,33.61028540039062,1.0344785451889038,-0.17990878224372864,0.825476884841919
1718451838264055300,33.66005517578125,1.1857812404632568,0.8673809170722961,0.550957441329956
1718451838313824300,33.70982421875,1.005845069885254,0.8448446989059448,0.1373424082994461
1718451838363594200,33.75959423828125,0.2586784362792969,0.27478015422821045,-0.23859339952468872
1718451838413364200,33.8093642578125,-0.5288342833518982,-0.9081131815910339,-0.6998558044433594
1718451838463133400,33.859133544921875,-2.3289060592651367,-1.8048080205917358,-1.9281152486801147
1718451838512903200,33.908903076171875,-2.131127119064331,-1.3141785860061646,-1.845956563949585
1718451838562672400,33.95867236328125,-2.0258941650390625,2.1324543952941895,-2.296327829360962
1718451838612442400,34.0084423828125,-1.1648749113082886,-0.8200581073760986,-0.7564464211463928
1718451838662212400,34.05821240234375,-1.2666382789611816,-1.356726884841919,-0.4594658613204956
1718451838711981300,34.107981201171874,-1.0246118307113647,-1.6683534383773804,0.3706749975681305
1718451838761751300,34.157751220703126,-0.16023202240467072,-0.030121950432658195,0.9372484087944031
1718451838811520300,34.207520263671874,1.2161072492599487,-0.6169761419296265,1.7664366960525513
1718451838861290200,34.257290283203126,-2.8379218578338623,1.7580487728118896,-0.3418806493282318
1718451838911060200,34.30706030273438,-0.6465420126914978,0.13843697309494019,0.4180830121040344
1718451838960829200,34.3568291015625,1.9721364974975586,-0.9612506628036499,0.7387222647666931
1718451839010599400,34.40659936523438,0.7722985744476318,-0.5397889018058777,0.5424555540084839
1718451839060368400,34.456368408203126,2.1522181034088135,0.48413097858428955,1.2628062963485718
1718451839110138000,34.50613818359375,1.2293555736541748,1.6094883680343628,2.0715270042419434
1718451839159907300,34.5559072265625,0.9743438363075256,-0.1653178483247757,0.928217351436615
1718451839209677300,34.60567724609375,0.8066397905349731,2.5383026599884033,0.8894262909889221
1718451839259447300,34.655447265625,0.8195087313652039,0.6238031387329102,0.5580115914344788
1718451839309216300,34.70521630859375,1.2977898120880127,1.0865103006362915,0.8254526257514954
1718451839358986200,34.754986328125,0.8428417444229126,0.5785642862319946,-0.12263883650302887
1718451839408755200,34.804755126953125,-0.13091513514518738,0.3697008192539215,0.19937995076179504
1718451839458525200,34.85452514648438,-1.005861520767212,0.254972904920578,-1.6055303812026978
1718451839508294400,34.90429443359375,-2.621476411819458,-0.5716803073883057,-2.750196695327759
1718451839558064000,34.95406420898438,-2.448979377746582,-0.07719678431749344,-1.6775730848312378
1718451839607834400,35.00383447265625,-1.9273041486740112,1.5302810668945312,-2.621643304824829
1718451839657603300,35.05360327148438,-1.2350436449050903,-1.4530651569366455,0.08381207287311554
1718451839707373000,35.103373046875,-1.0789815187454224,-1.1804640293121338,-0.2648838460445404
1718451839757142300,35.15314233398438,-0.7061417102813721,-0.9934709072113037,0.43455997109413147
1718451839806912300,35.20291235351562,0.46844151616096497,-0.02857225574553013,1.176655888557434
1718451839856681500,35.25268139648438,0.041004158556461334,-2.0039844512939453,-0.20819474756717682
1718451839906451200,35.302451171875,-1.1189281940460205,-1.3696479797363281,-0.8642793893814087
1718451839956221400,35.35222143554687,1.1070291996002197,1.4918543100357056,0.25179174542427063
1718451840005990100,35.401990234375,0.30494579672813416,1.6298431158065796,-0.36361098289489746
1718451840055760100,35.45176000976563,2.1783246994018555,0.5221961140632629,1.1565730571746826
1718451840105529300,35.501529296875,1.4916319847106934,-0.8545572757720947,0.9851272702217102
1718451840155300000,35.551300048828125,1.2024976015090942,2.4501383304595947,1.7421989440917969
1718451840205069000,35.60106909179687,1.080857515335083,0.026155704632401466,1.0585743188858032
1718451840254839300,35.65083935546875,0.9602962136268616,2.494985342025757,1.1474189758300781
1718451840304608000,35.70060791015625,1.0268597602844238,0.24674320220947266,0.4372763931751251
1718451840354378200,35.750378173828125,1.2026255130767822,1.2293145656585693,0.6370667219161987
1718451840404147200,35.80014721679687,0.7698229551315308,0.33356305956840515,0.04313096031546593
1718451840453917000,35.8499169921875,0.08382485806941986,0.19412872195243835,-0.29372909665107727
1718451840503687200,35.89968725585938,-0.9771382808685303,-0.3507540225982666,-1.31052827835083
1718451840553456000,35.9494560546875,-2.1557767391204834,-0.5101210474967957,-2.7068302631378174
1718451840603226000,35.99922607421875,-2.4461939334869385,-0.38203737139701843,-1.4460549354553223
1718451840652995000,36.0489951171875,-1.93398118019104,1.392971158027649,-2.376124620437622
1718451840702765300,36.098765380859376,-1.2550777196884155,-0.9465508460998535,0.17771220207214355
1718451840752534300,36.1485341796875,-1.1052800416946411,-1.6866134405136108,-0.23076103627681732
1718451840802304000,36.198303955078124,-0.8263469338417053,-1.606429934501648,0.5329930782318115
1718451840852073200,36.2480732421875,0.32835498452186584,0.11920468509197235,1.0970042943954468
1718451840901843000,36.297843017578124,0.376085489988327,-1.527811050415039,0.18557386100292206
1718451840951612200,36.34761206054687,-1.2450467348098755,-1.432122826576233,-0.9661114811897278
1718451841001382100,36.397382080078124,0.7206910848617554,1.9152498245239258,0.593396782875061
1718451841051151000,36.44715112304687,0.22778549790382385,0.8659380078315735,0.08116888999938965
1718451841100921000,36.496921142578124,1.433376669883728,0.8803731203079224,1.2448309659957886
1718451841150690000,36.54668994140625,1.7776973247528076,-0.6842864751815796,0.9279981851577759
1718451841200460000,36.5964599609375,1.2965178489685059,2.472334384918213,2.3322837352752686
1718451841250229200,36.64622924804687,0.9992108345031738,-0.006426207721233368,0.9417874813079834
1718451841299999000,36.6959990234375,0.8717231750488281,2.598025321960449,1.2187684774398804
1718451841349768200,36.74576831054687,1.171114206314087,0.6529905796051025,0.39835643768310547
1718451841399538000,36.79553784179687,1.2237275838851929,1.0758252143859863,0.6073589324951172
1718451841449307000,36.84530688476563,0.47664856910705566,0.47256115078926086,0.048712942749261856
1718451841499077000,36.8950771484375,-0.06517953425645828,-0.4058130085468292,-0.5025326609611511
1718451841548846000,36.94484619140625,-1.4387762546539307,-0.802618145942688,-1.6214221715927124
1718451841598616000,36.99461596679687,-2.1721394062042236,-0.9809418320655823,-2.6521646976470947
1718451841648385000,37.04438500976563,-2.602923631668091,0.8920151591300964,-1.6834304332733154
1718451841698155300,37.0941552734375,-1.7295185327529907,1.5376449823379517,-2.2238197326660156
1718451841747924000,37.14392407226563,-1.1524499654769897,-1.720952033996582,0.2640766501426697
1718451841797694000,37.19369384765625,-0.8567197322845459,-1.885214924812317,-0.29051733016967773
1718451841847463200,37.243463134765626,-0.6193156838417053,-0.7309376001358032,0.4608166217803955
1718451841897233000,37.29323291015625,0.6325702667236328,-0.03972557559609413,1.3544394969940186
1718451841947001900,37.343001953125,-0.950624942779541,-1.3405681848526,-0.4849744141101837
1718451841996772000,37.39277221679688,-0.9536066055297852,-0.6560322046279907,-0.4132930338382721
1718451842046541000,37.442541015625,2.2265493869781494,1.1499305963516235,0.29423215985298157
1718451842096311000,37.49231103515625,0.18319059908390045,0.7281633615493774,-0.801424503326416
1718451842146079500,37.54207958984375,1.8135615587234497,1.1316900253295898,1.37584388256073
1718451842195849700,37.591849609375,1.5031741857528687,-0.6840260028839111,0.805310070514679
1718451842245618700,37.64161865234375,1.0445208549499512,1.2290570735931396,1.5065020322799683
1718451842295388700,37.691388671875,1.0936574935913086,0.7040878534317017,0.9207759499549866
1718451842345157600,37.74115771484375,0.9068425893783569,2.537259578704834,1.087571382522583
1718451842394927600,37.790927734375,1.327063798904419,0.267414927482605,0.735364556312561
1718451842444696600,37.84069653320312,1.0462638139724731,0.7183538675308228,0.09823176264762878
1718451842494466600,37.890466552734374,0.20016159117221832,0.2846567630767822,0.28508979082107544
1718451842544235800,37.94023583984375,-0.43221771717071533,-0.42860302329063416,-0.9071299433708191
1718451842594004700,37.99000463867188,-2.0020904541015625,-1.1543668508529663,-2.1301660537719727
1718451842643774700,38.03977465820312,-2.1688153743743896,-1.1506997346878052,-1.8409857749938965
1718451842693543700,38.08954370117188,-2.50028657913208,1.924496054649353,-2.351081132888794
1718451842743313700,38.13931372070312,-1.332721471786499,-0.03351534903049469,-0.6795777082443237
1718451842793082600,38.18908251953125,-1.2057632207870483,-1.3540499210357666,-0.35200199484825134
1718451842842852600,38.2388525390625,-0.6757243871688843,-2.0113654136657715,0.16431383788585663
1718451842892621600,38.28862158203125,-0.09006863832473755,-0.04580823332071304,0.7967967391014099
1718451842942391600,38.3383916015625,1.1082632541656494,-1.0228370428085327,1.3373185396194458
1718451842992160500,38.388160400390625,-3.6674842834472656,-0.2889753580093384,-0.6276596784591675
1718451843041930800,38.4379306640625,0.0321214497089386,0.6586290001869202,0.6470932960510254
1718451843091699700,38.48769970703125,0.754940390586853,-0.37991803884506226,-0.3377799093723297
1718451843141468700,38.53746875,1.5041704177856445,0.48625805974006653,0.9976475834846497
1718451843191238700,38.58723876953125,1.9901988506317139,-0.28295525908470154,0.8981609344482422
1718451843241007900,38.6370078125,1.211384654045105,0.141065776348114,1.4940423965454102
1718451843290777600,38.686777587890624,1.0358660221099854,0.263680100440979,1.48942232131958
1718451843340546800,38.736546875,1.055233359336853,1.3427472114562988,1.1513415575027466
1718451843390316800,38.78631689453125,1.0965451002120972,0.844150960445404,0.8443946242332458
1718451843440085800,38.83608569335937,1.3464868068695068,1.0860456228256226,0.9942408800125122
1718451843489854700,38.88585473632813,0.6894018650054932,0.4973059296607971,-0.3243698179721832
1718451843539624700,38.93562475585937,0.013525662012398243,0.19391408562660217,0.030291859060525894
1718451843589394000,38.98539379882813,-1.057417392730713,-0.2635496258735657,-1.1793084144592285
1718451843639163600,39.03516357421875,-2.1365609169006348,-0.9886823296546936,-2.8162384033203125
1718451843688932600,39.0849326171875,-2.378538131713867,-0.4671964943408966,-1.5691733360290527
1718451843738702800,39.13470288085937,-1.8623563051223755,1.591949224472046,-2.358741044998169
1718451843788471800,39.18447192382813,-1.3324081897735596,-0.7982109189033508,0.15520477294921875
1718451843838240800,39.23424072265625,-1.135909080505371,-1.813920497894287,-0.3147025406360626
1718451843888010800,39.2840107421875,-0.8161891102790833,-1.567360281944275,0.4739915430545807
1718451843937779700,39.33377978515625,0.38061100244522095,0.08313589543104172,1.163411021232605
1718451843987549700,39.3835498046875,0.3040086328983307,-2.050870895385742,-0.3842909336090088
1718451844037318700,39.43331860351562,-1.2741897106170654,-0.5815619230270386,-0.5723809599876404
1718451844087087900,39.483087890625,1.4397491216659546,0.7622954845428467,0.24277189373970032
1718451844136857900,39.53285791015625,0.7824737429618835,1.5916494131088257,-0.6399022340774536
1718451844186626600,39.58262646484375,2.543222427368164,0.03930958732962608,1.3138792514801025
1718451844236396500,39.632396484375,1.2724472284317017,0.16156652569770813,1.313823938369751
1718451844286165800,39.68216577148438,0.8876031041145325,-0.39911383390426636,1.7010136842727661
1718451844335934700,39.731934814453126,1.120151162147522,0.35222649574279785,1.3087905645370483
1718451844385704400,39.781704345703126,1.0144691467285156,1.8316755294799805,1.297703742980957
1718451844435473700,39.8314736328125,1.263926386833191,0.03136564418673515,0.5533316135406494
1718451844485242600,39.88124267578125,0.981343150138855,1.0483964681625366,0.6944842338562012
1718451844535012600,39.9310126953125,0.4623793661594391,0.2574038505554199,-0.03473880514502525
1718451844584781600,39.98078149414062,-0.14555080235004425,-0.17409856617450714,-0.8820871710777283
1718451844634551600,40.030551513671874,-1.5384080410003662,-1.0482816696166992,-1.8460878133773804
1718451844684320800,40.08032080078125,-2.1832544803619385,-1.2393702268600464,-2.1722869873046875
1718451844734089700,40.13008984375,-2.682371139526367,0.9337196946144104,-1.5375778675079346
1718451844783859700,40.17985961914062,-1.5663011074066162,0.8688714504241943,-1.5147266387939453
1718451844833628700,40.22962866210938,-1.273353934288025,-1.6471080780029297,0.18886153399944305
1718451844883397600,40.279397705078125,-0.8752753138542175,-2.55472993850708,-0.041302166879177094
1718451844933167600,40.32916772460938,-0.4962763488292694,-0.5316982269287109,0.712274432182312
1718451844982936600,40.3789365234375,0.8446193933486938,-0.3132804334163666,1.4337729215621948
1718451845032705500,40.42870556640625,-2.464409828186035,-0.5016053318977356,-0.25032487511634827
1718451845082475800,40.478475830078125,-0.8117266893386841,-0.23611906170845032,0.17452546954154968
1718451845132244200,40.528244140625,2.6519172191619873,-0.3546355962753296,0.577785849571228
1718451845182014200,40.57801416015625,0.32020676136016846,-0.4746922254562378,-0.7741414904594421
1718451845231783200,40.627783203125,2.0536162853240967,1.093848705291748,1.2982124090194702
1718451845281552100,40.67755224609375,1.4734654426574707,-1.5765337944030762,0.8970514535903931
1718451845331322000,40.727322021484376,0.9860319495201111,0.699874997138977,1.4158096313476562
1718451845381091000,40.777091064453124,0.8599589467048645,0.6868231296539307,1.126721978187561
1718451845430860000,40.82686010742187,0.8591184616088867,1.5866689682006836,1.2024643421173096
1718451845480630300,40.87663037109375,1.1244348287582397,0.05064933001995087,0.6797412633895874
1718451845530399000,40.92639892578125,0.9535096883773804,0.6709882020950317,0.3952660858631134
1718451845580168200,40.97616821289063,0.3373628556728363,0.5547244548797607,0.06783550977706909
1718451845629937200,41.025937255859375,-0.09313127398490906,-0.25300028920173645,-0.5992365479469299
1718451845679707100,41.07570703125,-1.5638121366500854,-1.0705816745758057,-1.519096851348877
1718451845729476000,41.12547607421875,-2.041369915008545,-0.9721291661262512,-2.4741029739379883
1718451845779245000,41.1752451171875,-2.3724606037139893,0.513460099697113,-1.5910203456878662
1718451845829015000,41.22501513671875,-1.6816333532333374,0.6510688662528992,-1.9708102941513062
1718451845878784300,41.2747841796875,-1.1645736694335938,-1.4741438627243042,0.18101851642131805
1718451845928553200,41.32455322265625,-0.959747850894928,-2.0849523544311523,-0.2928300201892853
1718451845978323200,41.3743232421875,-0.5512298941612244,-0.515031099319458,0.47314146161079407
1718451846028092200,41.424092041015626,0.6609199047088623,0.16516205668449402,1.121431827545166
1718451846077861000,41.473861083984374,-0.6394484043121338,-0.7997123599052429,-0.3345145881175995
1718451846127631000,41.523631103515626,-0.9987141489982605,-0.8157134652137756,-0.3675551116466522
1718451846177401000,41.57340112304688,1.5567848682403564,1.177907943725586,0.2291056215763092
1718451846227170000,41.623170166015626,0.34052348136901855,1.6281507015228271,-0.7442715167999268
1718451846276940000,41.67293994140625,2.2726755142211914,0.47524935007095337,1.2639024257659912
1718451846326709000,41.722708984375,1.4950929880142212,-1.052621603012085,0.6980201005935669
1718451846376478000,41.77247802734375,1.0517570972442627,1.5530468225479126,1.552936315536499
1718451846426247200,41.8222470703125,0.9784128665924072,0.07194370031356812,1.0434826612472534
1718451846476017000,41.87201684570312,0.8390136957168579,2.0023036003112793,1.221413493156433
1718451846525785900,41.92178588867188,1.1964927911758423,-0.2203022688627243,0.6051905751228333
1718451846575555000,41.97155517578125,1.2132799625396729,1.0269601345062256,0.7528393864631653
1718451846625325000,42.02132495117188,0.5832328200340271,0.37882667779922485,-0.326369047164917
1718451846675094000,42.071093994140625,0.02929583750665188,-0.18431738018989563,-0.15515150129795074
1718451846724863000,42.12086303710937,-1.0131505727767944,-0.47950267791748047,-1.1313151121139526
1718451846774633000,42.170633056640625,-2.0987067222595215,-0.5635499358177185,-2.641756772994995
1718451846824402200,42.22040209960937,-2.375403642654419,-0.5402701497077942,-1.4747179746627808
1718451846874171100,42.27017114257813,-1.8906867504119873,1.4919217824935913,-2.1316874027252197
1718451846923939800,42.31993994140625,-1.2839008569717407,-1.409318447113037,-0.04026326537132263
1718451846973710000,42.3697099609375,-1.22544264793396,-1.859039306640625,-0.09348654001951218
1718451847023479000,42.41947900390625,-0.9366340041160583,-1.8703526258468628,0.5676418542861938
1718451847073248000,42.469248046875,0.10399351269006729,0.20089049637317657,1.11972177028656
1718451847123017000,42.51901684570313,0.8744417428970337,-1.4124037027359009,0.5113874077796936
1718451847172786200,42.5687861328125,-1.6607997417449951,-0.4685560166835785,-0.8596444129943848
1718451847222555100,42.61855517578125,0.3906780183315277,1.1786000728607178,0.5008559226989746
1718451847272324000,42.66832397460937,0.14735935628414154,1.0760470628738403,-0.4143330156803131
1718451847322094000,42.718093994140624,2.126828193664551,0.2457312047481537,1.274452567100525
1718451847371863000,42.76786303710937,1.6130732297897339,-0.5338940024375916,0.7519443035125732
1718451847421632300,42.81763232421875,1.0519139766693115,1.3206735849380493,1.6545891761779785
1718451847471401200,42.867401123046875,0.9895989894866943,0.11136940121650696,1.0305736064910889
1718451847521171200,42.91717114257813,0.9457095265388489,2.0185611248016357,1.1259245872497559
1718451847570940200,42.966940185546875,1.0941333770751953,0.03896896913647652,0.595865786075592
1718451847620709000,43.01670922851562,1.2578163146972656,1.1089935302734375,0.7637128233909607
1718451847670478000,43.06647802734375,0.5979400873184204,0.4143843948841095,-0.22049002349376678
1718451847720248300,43.11624829101562,-0.01293310895562172,0.05583982914686203,-0.21285420656204224
1718451847770017000,43.16601708984375,-1.1011852025985718,-0.2930862009525299,-1.335798740386963
1718451847819786000,43.215785888671874,-2.0652246475219727,-0.6664520502090454,-2.705003261566162
1718451847869555200,43.26555517578125,-2.4636764526367188,-0.1458035409450531,-1.4521005153656006
1718451847919325200,43.3153251953125,-1.74747896194458,0.9887068271636963,-2.238832712173462
1718451847969094400,43.365094482421874,-1.3082102537155151,-1.1684839725494385,0.2123412936925888
1718451848018863000,43.41486303710938,-1.0816346406936646,-1.7561248540878296,-0.183149054646492
1718451848068632000,43.464632080078125,-0.8497499823570251,-1.6370807886123657,0.5617014169692993
1718451848118402300,43.51440234375,0.2567753195762634,0.18240176141262054,1.058890461921692
1718451848168171500,43.56417163085938,0.15859204530715942,-1.6437184810638428,0.24091088771820068
1718451848217940200,43.61394018554687,-0.9395400285720825,-0.8949832320213318,-0.5262795090675354
1718451848267709200,43.66370922851563,0.6527162790298462,1.3782788515090942,0.7215078473091125
1718451848317479400,43.7134794921875,-0.29665616154670715,0.9836121797561646,-0.8677473664283752
1718451848367248400,43.76324829101563,1.9965236186981201,0.7106120586395264,1.2906099557876587
1718451848417017300,43.81301733398438,1.6817715167999268,-0.6410399079322815,0.5223028659820557
1718451848466786300,43.862786376953125,1.2151585817337036,1.5292017459869385,2.0775747299194336
1718451848516556300,43.912556396484376,0.8968029618263245,-0.10619967430830002,1.0348881483078003
1718451848566325200,43.9623251953125,0.8960722088813782,2.4217474460601807,1.2268024682998657
1718451848616094500,44.01209448242187,1.1770594120025635,0.21890385448932648,0.4584360122680664
1718451848665863200,44.06186328125,1.0943421125411987,1.0779554843902588,0.5790417790412903
1718451848715632000,44.111632080078124,0.45851510763168335,0.5357624888420105,-0.07507797330617905
1718451848765402400,44.16140234375,-0.06549618393182755,-0.2644588053226471,-0.43754804134368896
1718451848815171300,44.21117138671875,-1.644694209098816,-0.858281672000885,-1.596712589263916
1718451848864940300,44.26094018554687,-2.2664599418640137,-1.1403871774673462,-2.6897361278533936
1718451848914709200,44.31070922851563,-2.3226451873779297,0.9203056693077087,-1.7970094680786133
1718451848964478200,44.360478271484375,-1.638323426246643,1.3717652559280396,-2.0239076614379883
1718451849014248400,44.41024853515625,-1.2926994562149048,-1.2312507629394531,0.4579406678676605
1718451849064017400,44.460017333984375,-1.106562614440918,-1.8361315727233887,0.04796486347913742
1718451849113786000,44.5097861328125,-0.45183297991752625,-0.8928950428962708,0.6546441316604614
1718451849163555300,44.55955541992188,0.8316628336906433,-0.45082443952560425,1.3036788702011108
1718451849213324300,44.60932421875,-2.0572333335876465,-0.3291131854057312,0.08366000652313232
1718451849263094500,44.65909448242188,-0.9317020773887634,-0.6704849004745483,0.05523795634508133
1718451849312863200,44.70886328125,1.7231535911560059,0.5131511688232422,0.2725990414619446
1718451849362632400,44.758632568359374,0.6992507576942444,0.7106466889381409,-0.17151503264904022
1718451849412401400,44.8084013671875,2.5780858993530273,0.5089292526245117,1.1285309791564941
1718451849462170400,44.85817041015625,1.2096282243728638,-0.37083345651626587,1.3101400136947632
1718451849511940400,44.9079404296875,0.9244356751441956,0.36877962946891785,1.3512508869171143
1718451849561709300,44.957709228515625,0.9578031897544861,0.46181291341781616,1.0445551872253418
1718451849611478300,45.00747827148437,0.8849460482597351,2.043116569519043,0.9155199527740479
1718451849661247500,45.05724755859375,1.125929355621338,0.5760348439216614,0.5367124676704407
1718451849711016400,45.10701635742188,1.0612380504608154,1.2431284189224243,0.2354319542646408
1718451849760786400,45.15678637695312,0.30010175704956055,0.5366969704627991,0.26484018564224243
1718451849810555400,45.20655541992188,-0.004554804414510727,-0.003734018187969923,-0.45632120966911316
1718451849860324400,45.256324462890625,-1.5994130373001099,-0.8911285996437073,-1.5621706247329712
1718451849910093300,45.30609326171875,-2.0444931983947754,-1.6121584177017212,-2.549673080444336
1718451849959862500,45.35586254882813,-2.0982542037963867,1.2217423915863037,-1.9923430681228638
1718451850009632300,45.40563232421875,-1.4190256595611572,0.4332968294620514,-1.9496057033538818
1718451850059401500,45.4554013671875,-1.2277079820632935,-1.0951189994812012,0.0870339646935463
1718451850109170400,45.50517041015625,-1.1334400177001953,-2.0603158473968506,-0.11816046386957169
1718451850158940000,45.55493994140625,-0.5345933437347412,-0.2590360939502716,0.6625018119812012
1718451850208709000,45.604709228515624,0.7939215898513794,-0.25772687792778015,1.3335038423538208
1718451850258477800,45.65447778320313,-2.359358310699463,-0.6767950057983398,-0.48988449573516846
1718451850308247800,45.70424780273437,-0.839972972869873,-0.4103284180164337,-0.17711912095546722
1718451850358017000,45.75401708984375,2.2659242153167725,1.1644126176834106,0.22659239172935486
1718451850407786000,45.803785888671875,0.08874824643135071,0.7892959713935852,-0.9437339901924133
1718451850457555000,45.85355493164062,1.899763822555542,0.4701331555843353,1.482683777809143
1718451850507324000,45.90332397460938,1.5830492973327637,-1.089516282081604,0.6801308393478394
1718451850557092900,45.9530927734375,1.0111234188079834,1.3270825147628784,1.769360065460205
1718451850606861800,46.00286181640625,1.1704031229019165,0.14080852270126343,1.0040076971054077
1718451850656632000,46.052632080078126,0.946592390537262,2.389883041381836,1.2073662281036377
1718451850706400800,46.10240087890625,0.9505279660224915,0.17316113412380219,0.3237250745296478
1718451850756169700,46.15216967773438,1.0281293392181396,1.1320221424102783,0.6907622218132019
1718451850805939000,46.20193896484375,0.5165536403656006,0.6172765493392944,-0.1992926001548767
1718451850855708000,46.2517080078125,-0.012398879043757915,-0.04330725967884064,-0.3083306550979614
1718451850905476900,46.30147680664062,-1.0318467617034912,-0.3209016025066376,-1.3976540565490723
1718451850955246800,46.351246826171874,-2.1973626613616943,-0.8193992376327515,-2.678802967071533
1718451851005015800,46.40101586914062,-2.3991551399230957,0.33917325735092163,-1.599115252494812
1718451851054784800,46.45078466796875,-1.7367738485336304,0.838695228099823,-2.3224308490753174
1718451851104554000,46.500553955078125,-1.1473561525344849,0.638316810131073,0.6053780317306519
1718451851154323000,46.55032299804687,-1.2414295673370361,-2.503215789794922,-0.17850369215011597
1718451851204092000,46.600091796875,-0.743808388710022,-1.0976016521453857,0.6148504018783569
1718451851253860600,46.649860595703124,0.4515607953071594,0.20970502495765686,1.378899335861206
1718451851303629800,46.6996298828125,0.5289496183395386,-2.362037181854248,-0.7504343390464783
1718451851353399800,46.74939990234375,-1.3089468479156494,-0.9349167943000793,-0.8057702779769897
1718451851403168800,46.79916870117187,0.86962890625,1.6332660913467407,0.9892522096633911
1718451851452937700,46.84893774414063,-0.14626480638980865,0.5580166578292847,0.4867640435695648
1718451851502706700,46.898706787109376,0.953395426273346,0.5376371145248413,0.9921859502792358
1718451851552475600,46.9484755859375,1.955594539642334,0.11035899817943573,0.5663886070251465
1718451851602244900,46.99824487304687,1.2058076858520508,0.5463640093803406,2.446744918823242
1718451851652013800,47.04801391601563,0.7918201088905334,0.1537964791059494,1.1504552364349365
1718451851701782800,47.09778271484375,0.8270710110664368,2.1558117866516113,1.0206778049468994
1718451851751551700,47.1475517578125,1.0763612985610962,0.8409556746482849,0.6040219664573669
1718451851801321700,47.19732177734375,1.1661412715911865,1.141158103942871,0.5386682748794556
1718451851851090700,47.24709057617188,0.686438798904419,0.33035793900489807,0.11671382933855057
1718451851900860000,47.29685986328125,0.23245801031589508,0.21122755110263824,0.2990836501121521
1718451851950628900,47.34662890625,-0.623063862323761,-0.10193675011396408,-1.1174514293670654
1718451852000397600,47.3963974609375,-2.0636258125305176,-0.7050021290779114,-2.5816497802734375
1718451852050166800,47.44616674804688,-2.574995279312134,-1.2419697046279907,-1.884157419204712
1718451852099935700,47.495935791015626,-1.9257283210754395,1.4792269468307495,-1.9540926218032837
1718451852149705000,47.545705078125,-1.6237444877624512,-1.4709522724151611,-0.631211519241333
1718451852199474000,47.59547387695312,-1.3907514810562134,-2.0825247764587402,-0.29264092445373535
1718451852249244000,47.645243896484374,-1.0287975072860718,-1.8004183769226074,0.16811950504779816
1718451852299012900,47.69501293945312,0.029107285663485527,-0.15403138101100922,1.2553986310958862
1718451852348781800,47.74478173828125,1.6111363172531128,0.519349992275238,2.3948512077331543
1718451852398551000,47.794551025390625,-3.3920395374298096,-0.5750443935394287,-0.7642241716384888
1718451852448320000,47.84432006835937,-0.6786325573921204,1.5180166959762573,0.10349150747060776
1718451852498089000,47.8940888671875,1.7533628940582275,-1.0328519344329834,0.27928730845451355
1718451852547858000,47.94385791015625,0.9057410955429077,0.25774312019348145,0.866201639175415
1718451852597627000,47.993626953125,1.952729344367981,-0.3899781405925751,0.9509407877922058
1718451852647395800,48.04339575195313,1.0211478471755981,0.8318445086479187,1.8871912956237793
1718451852697165000,48.0931650390625,0.9144061803817749,0.4835416376590729,1.2775226831436157
1718451852746934000,48.14293408203125,0.9579273462295532,1.9941201210021973,0.8476157188415527
1718451852796703700,48.192703857421876,0.9647362232208252,0.6403743624687195,0.6098164916038513
1718451852846473000,48.242472900390624,1.2915023565292358,0.6541687846183777,0.9473543167114258
1718451852896242000,48.29224194335937,0.8362831473350525,0.5241007804870605,-0.004820321686565876
1718451852946011000,48.34201098632813,0.17023085057735443,0.5094741582870483,0.14752314984798431
1718451852995780000,48.391780029296875,-0.3072550296783447,-0.09730231761932373,-0.6492486000061035
1718451853045548800,48.441548828125,-1.6871393918991089,-1.2589808702468872,-2.2418527603149414
1718451853095317800,48.49131787109375,-2.256474018096924,-1.4619848728179932,-1.8931459188461304
1718451853145086200,48.54108618164062,-2.151810646057129,1.48088538646698,-1.9928301572799683
1718451853194855200,48.59085522460938,-1.1891751289367676,-0.2459474503993988,-1.0579473972320557
1718451853244624100,48.6406240234375,-1.2101489305496216,-1.1259344816207886,-0.05331302434206009
1718451853294393000,48.69039306640625,-0.948689877986908,-2.168520450592041,0.20238985121250153
1718451853344162300,48.74016235351562,-0.35961464047431946,0.05457190051674843,0.6981468796730042
1718451853393931300,48.78993115234375,0.9229350090026855,-0.3635348081588745,1.3006844520568848
1718451853443700000,48.83969995117187,-1.5073273181915283,-0.6245062351226807,-0.1100359559059143
1718451853493469200,48.88946923828125,-1.0105607509613037,-0.32935231924057007,0.03494786471128464
1718451853543238100,48.93923803710938,1.9938887357711792,0.28947415947914124,0.6385732889175415
1718451853593007000,48.989007080078125,0.09754200279712677,-0.33462512493133545,-0.8830354809761047
1718451853642777000,49.038777099609376,2.0293009281158447,0.9373117685317993,1.238297700881958
1718451853692546000,49.088546142578124,1.2597886323928833,-2.4067542552948,0.971769392490387
1718451853742315300,49.13831518554687,0.6897581815719604,0.5265191793441772,1.267507791519165
1718451853792084200,49.18808422851563,0.7581180930137634,0.8270651698112488,1.17158842086792
1718451853841853200,49.237853271484376,1.0509734153747559,0.9941505789756775,1.0199321508407593
1718451853891622100,49.2876220703125,1.198325753211975,0.530417263507843,0.6511351466178894
1718451853941391000,49.33739111328125,0.730510950088501,0.6222742199897766,0.09505674242973328
1718451853991160000,49.38716015625,0.25400882959365845,0.7123255729675293,0.26298022270202637
1718451854040929000,49.43692895507812,-0.24958719313144684,-0.2796236574649811,-0.5955938696861267
1718451854090698200,49.4866982421875,-1.6386048793792725,-1.2315177917480469,-1.7782379388809204
1718451854140467200,49.53646728515625,-2.134286880493164,-1.4210976362228394,-2.169445037841797
1718451854190236400,49.586236328125,-2.190458297729492,1.0179909467697144,-1.6304031610488892
1718451854240005400,49.63600537109375,-1.417164921760559,0.24225205183029175,-1.437649130821228
1718451854289774000,49.68577416992188,-1.1955779790878296,-1.2043378353118896,0.16339771449565887
1718451854339543300,49.735543212890626,-0.9022613763809204,-2.120548963546753,0.029513683170080185
1718451854389312300,49.785312255859374,-0.49277961254119873,-0.46162888407707214,0.7107947468757629
1718451854439081200,49.83508129882812,0.8457704186439514,-0.06735693663358688,1.297171950340271
1718451854488850400,49.88485034179688,-1.961549162864685,-1.7714731693267822,-0.7705733776092529
1718451854538619400,49.934619384765625,-1.0175776481628418,0.6708404421806335,-0.2452947050333023
1718451854588388000,49.98438818359375,1.8062483072280884,-0.39873406291007996,-0.3910175561904907
1718451854638157300,50.0341572265625,0.9776552319526672,1.2686550617218018,-0.16999676823616028
1718451854687926300,50.08392626953125,2.3510804176330566,-0.453426331281662,1.2470121383666992
1718451854737695200,50.1336953125,1.388461947441101,0.10118120908737183,1.5501166582107544
1718451854787464200,50.18346411132813,0.7330201864242554,-0.24696451425552368,1.6127983331680298
1718451854837233400,50.2332333984375,0.8795302510261536,0.7942646145820618,1.2219831943511963
1718451854887002000,50.283002197265624,0.895855188369751,1.5467748641967773,1.2089259624481201
1718451854936771000,50.33277099609375,1.1242878437042236,0.027999144047498703,0.5322266221046448
1718451854986540300,50.38254028320313,1.0198724269866943,0.9294602870941162,0.605797529220581
1718451855036309200,50.432309326171875,0.4834390878677368,0.3640679717063904,0.06565890461206436
1718451855086078200,50.482078125,0.20101779699325562,0.06922195106744766,-0.20777903497219086
1718451855135847400,50.53184741210937,-0.9289776682853699,-0.5482428669929504,-1.1102899312973022
1718451855185616600,50.58161669921875,-2.0068576335906982,-0.6855208277702332,-2.3928492069244385
1718451855235385600,50.631385498046875,-2.1705660820007324,-0.896681010723114,-1.5259417295455933
1718451855285154800,50.68115478515625,-1.7412828207015991,1.1653223037719727,-2.142390727996826
1718451855334923800,50.730923828125,-1.2368686199188232,-0.8109202980995178,-0.19720600545406342
1718451855384692700,50.780692626953126,-1.1881365776062012,-1.5724676847457886,-0.16726835072040558
1718451855434462000,50.8304619140625,-0.9747486710548401,-1.744947910308838,0.4934166371822357
1718451855484230700,50.88023071289062,0.07206806540489197,0.4489961862564087,0.8451008796691895
1718451855533999600,50.92999951171875,0.8264654278755188,-1.6371028423309326,0.20030459761619568
1718451855583768800,50.979768798828125,-1.8378610610961914,0.014999722130596638,-0.9450690150260925
1718451855633537800,51.02953784179687,0.38899755477905273,0.3336586654186249,0.29948312044143677
1718451855683306800,51.079306640625,1.7395576238632202,-0.640184760093689,1.7509706020355225
1718451855733076000,51.12907592773438,0.47088122367858887,-0.3266122043132782,0.03128095716238022
1718451855782844700,51.1788447265625,1.868005633354187,0.3358437716960907,0.9056846499443054
1718451855832613600,51.22861352539063,1.3814942836761475,-0.26109579205513,1.6552371978759766
1718451855882382800,51.2783828125,0.8022533059120178,0.6869648098945618,1.4688888788223267
1718451855932151800,51.32815185546875,0.9366862177848816,0.7992335557937622,1.1812912225723267
1718451855981920800,51.37792065429687,0.880461573600769,0.6361881494522095,1.172102451324463
1718451856031689700,51.42768969726563,1.2743496894836426,0.6138975024223328,0.5808207988739014
1718451856081458700,51.477458740234376,0.7089664936065674,0.6598061323165894,0.1622869074344635
1718451856131227600,51.5272275390625,0.13067679107189178,0.4728993773460388,0.16013853251934052
1718451856180996400,51.57699633789063,-0.42529669404029846,-0.3542560935020447,-0.8161715269088745
1718451856230765600,51.626765625,-1.5593864917755127,-1.4600520133972168,-2.000369071960449
1718451856280534500,51.67653442382812,-2.1779274940490723,-0.7904794812202454,-2.094808340072632
1718451856330303500,51.72630346679688,-2.5281176567077637,1.411180853843689,-2.04134464263916
1718451856380072700,51.77607275390625,-1.3855679035186768,0.36715272068977356,-0.8526924848556519
1718451856429841400,51.82584130859375,-1.0919243097305298,-1.3920323848724365,-0.40439915657043457
1718451856479610400,51.8756103515625,-0.6927646398544312,-2.0833253860473633,0.004370513837784529
1718451856529379600,51.92537963867188,-0.16156652569770813,0.15703408420085907,0.7801551818847656
1718451856579148500,51.9751484375,0.9745907187461853,-0.46031540632247925,1.256514549255371
1718451856628917500,52.02491748046875,-2.3255198001861572,-1.318312168121338,-0.3939582109451294
1718451856678686700,52.07468676757812,-0.3090936541557312,0.6406063437461853,-0.4751414954662323
1718451856728455400,52.124455322265625,-0.9529128670692444,0.8093184232711792,-0.5291568040847778
1718451856778224400,52.17422436523437,1.7980859279632568,1.2735997438430786,1.2995283603668213
1718451856827993300,52.22399340820313,1.791116714477539,-0.12528495490550995,0.7620198726654053
1718451856877762600,52.273762451171876,1.0677907466888428,-0.8605507016181946,1.3153318166732788
1718451856927531500,52.323531494140624,0.9120892286300659,-0.25327593088150024,1.8554227352142334
1718451856977300500,52.37330053710937,1.0850155353546143,0.3118676245212555,1.0383321046829224
1718451857027068700,52.423068603515624,0.8976716995239258,1.3321679830551147,1.0219597816467285
1718451857076837600,52.47283764648437,1.2026557922363281,0.7166880965232849,0.8826733231544495
1718451857126606600,52.52260668945313,1.1268540620803833,1.2139428853988647,0.4421558380126953
1718451857176375600,52.57237548828125,0.5025616884231567,0.2294827252626419,-0.053638726472854614
1718451857226144500,52.62214453125,0.15541303157806396,0.5125541090965271,-0.022775353863835335
1718451857275913700,52.67191381835938,-0.6771270632743835,-0.6067650318145752,-0.8687652349472046
1718451857325682700,52.7216826171875,-2.0541889667510986,-0.9287528991699219,-2.591663122177124
1718451857375451600,52.77145166015625,-2.5035359859466553,0.19677723944187164,-1.7910184860229492
1718451857425220600,52.821220703125,-2.0732102394104004,1.623016357421875,-2.022282838821411
1718451857474989600,52.870989501953126,-1.3811358213424683,0.33237341046333313,0.18768255412578583
1718451857524758500,52.920758544921874,-1.1369998455047607,-0.8808935284614563,0.0027047062758356333
1718451857574527700,52.97052783203125,-0.6457241773605347,-1.286846399307251,0.731487512588501
1718451857624296700,53.02029663085938,0.2713862359523773,0.26115116477012634,1.277893304824829
1718451857674065700,53.070065673828125,0.7726184725761414,-2.696033000946045,0.19097022712230682
1718451857723834600,53.11983471679687,-1.9298287630081177,0.16408827900886536,-1.4284149408340454
1718451857773602800,53.169602783203125,1.0005844831466675,1.5201674699783325,0.4107377231121063
1718451857823371800,53.21937182617187,1.5201959609985352,-1.281530737876892,2.103924036026001
1718451857873140500,53.269140380859376,0.0004620584368240088,1.2564834356307983,0.6679239869117737
1718451857922909700,53.31890966796875,1.9391218423843384,0.49133244156837463,0.7897300720214844
1718451857972678700,53.3686787109375,1.2249622344970703,2.191592216491699,1.4609204530715942
1718451858022447600,53.41844750976563,1.1100739240646362,0.049487657845020294,1.0279580354690552
1718451858072216800,53.468216796875,0.3456950783729553,3.734009265899658,0.32698798179626465
1718451858121985800,53.51798583984375,0.7117822766304016,1.8316774368286133,0.5099583268165588
1718451858171754800,53.56775463867187,1.3631166219711304,1.1334270238876343,0.620387613773346
1718451858221524000,53.61752392578125,0.5624114274978638,1.3041560649871826,-0.17883045971393585
1718451858271293000,53.66729296875,-0.1416732519865036,0.4617878794670105,-0.039615850895643234
1718451858321060900,53.717060791015626,-0.9048790335655212,0.4161492884159088,-1.7086939811706543
1718451858370829800,53.766829833984374,-2.3243095874786377,-0.052312739193439484,-2.8094050884246826
1718451858420599000,53.81659912109375,-2.2928240299224854,0.34642294049263,-1.6082230806350708
1718451858470368000,53.86636791992188,-2.138474464416504,1.5799202919006348,-2.6690638065338135
1718451858520137000,53.916136962890626,-1.2736929655075073,-0.8167427778244019,0.11104689538478851
1718451858569906000,53.965906005859374,-0.9794179797172546,-0.46560871601104736,-0.1401429921388626
1718451858619675000,54.0156748046875,-0.6061429381370544,-1.2623777389526367,0.332713782787323
1718451858669443800,54.06544384765625,0.35455650091171265,-0.28703948855400085,0.8216762542724609
1718451858719213000,54.115213134765625,0.896012008190155,-1.3790841102600098,0.7467647194862366
1718451858768982000,54.16498193359375,-1.4978736639022827,-1.1225436925888062,-1.0456480979919434
1718451858818750000,54.21475,0.27883481979370117,1.2641080617904663,0.5862680077552795
1718451858868519000,54.26451879882813,0.16213297843933105,0.044258806854486465,0.2914299964904785
1718451858918288000,54.314287841796876,1.3741251230239868,1.1571141481399536,0.8847833275794983
1718451858968056800,54.364056884765624,1.6777400970458984,-0.6926605105400085,1.0298765897750854
1718451859017825800,54.41382568359375,1.0759320259094238,1.430550217628479,1.3066152334213257
1718451859067595000,54.46359497070313,1.1394076347351074,0.42406392097473145,1.2670196294784546
1718451859117364000,54.513364013671875,0.9691986441612244,2.215367078781128,0.8975220322608948
1718451859167133200,54.56313330078125,0.9436341524124146,0.8603333830833435,0.4202771782875061
1718451859216901000,54.612901123046875,1.2331339120864868,0.8805909752845764,0.7551134824752808
1718451859266670000,54.66267016601562,0.763689398765564,0.22380833327770233,-0.1583837866783142
1718451859316439000,54.71243896484375,-0.09435153752565384,0.01495098602026701,-0.012010856531560421
1718451859366208000,54.7622080078125,-0.7865443825721741,-0.009966613724827766,-1.351918339729309
1718451859415977000,54.81197705078125,-2.188896894454956,-0.1534164547920227,-2.5653138160705566
1718451859465746000,54.86174584960938,-2.516615390777588,-0.6813132762908936,-1.606502890586853
1718451859515515100,54.91151513671875,-1.9990829229354858,1.577294111251831,-2.2928926944732666
1718451859565283000,54.96128295898438,-1.1815284490585327,-1.2568320035934448,0.027786623686552048
1718451859615052000,55.011052001953125,-0.9775710701942444,-1.4263973236083984,-0.10131250321865082
1718451859664821000,55.06082104492187,-0.6948307156562805,-1.830425500869751,0.5153546929359436
1718451859714590000,55.11058984375,0.11543445289134979,0.19845210015773773,1.0335410833358765
1718451859764359000,55.16035888671875,0.7215307354927063,-1.0497899055480957,0.9231203198432922
1718451859814127900,55.2101279296875,-2.163637161254883,0.06963793188333511,-1.0601431131362915
1718451859863895800,55.259895751953124,-0.03184794262051582,0.7948678135871887,0.7996676564216614
1718451859913665000,55.3096650390625,0.2528833746910095,0.08229194581508636,-0.21920186281204224
1718451859963434000,55.35943408203125,1.7511529922485352,0.3795827329158783,1.0408504009246826
1718451860013203000,55.409202880859375,1.8911418914794922,-0.11208952218294144,0.7290976047515869
1718451860062972200,55.45897216796875,1.2593598365783691,1.9316307306289673,2.2524635791778564
1718451860112741000,55.5087412109375,0.9154413938522339,0.12434618920087814,1.092002511024475
1718451860162508500,55.55850854492188,0.8483654260635376,2.5514307022094727,0.9502161145210266
1718451860212277500,55.608277587890626,0.9438482522964478,0.47817111015319824,0.28050437569618225
1718451860262046500,55.65804638671875,1.184924840927124,1.109329104423523,0.8060557842254639
1718451860311815400,55.7078154296875,0.6921928524971008,0.6314959526062012,-0.18863941729068756
1718451860361584400,55.75758447265625,-0.05025837570428848,-0.21792007982730865,-0.2930830121040344
1718451860411353300,55.807353271484374,-1.0219472646713257,-0.082767054438591,-1.6795011758804321
1718451860461121300,55.857121337890625,-2.3587429523468018,-1.1100479364395142,-2.6489126682281494
1718451860510890500,55.90689038085937,-2.5884368419647217,0.4464523196220398,-1.6247650384902954
1718451860560659500,55.95665942382813,-1.767944574356079,0.8850741386413574,-2.3477818965911865
1718451860610428400,56.006428466796876,-1.3394014835357666,-1.5452792644500732,0.25426289439201355
1718451860660197400,56.056197265625,-1.1188265085220337,-1.7656770944595337,-0.0612092949450016
1718451860709965600,56.105965576171876,-0.758383572101593,-1.379596471786499,0.6547823548316956
1718451860759734300,56.155734375,0.5726451277732849,0.24093592166900635,1.395027995109558
1718451860809503200,56.20550317382813,-1.45639967918396,-2.1468799114227295,-0.35661670565605164
1718451860859272400,56.2552724609375,-0.9839898347854614,-0.6163486838340759,-0.015511581674218178
1718451860909041400,56.30504150390625,2.2722668647766113,1.6018940210342407,-0.44336384534835815
1718451860958809300,56.354809326171875,0.18347102403640747,1.4148863554000854,-1.351188063621521
1718451861008578300,56.40457836914062,1.4889163970947266,0.9271348118782043,1.4544038772583008
1718451861058347500,56.45434741210938,1.5884994268417358,-0.9571038484573364,1.0465439558029175
1718451861108116500,56.504116455078126,0.9654222726821899,0.7993869185447693,1.3372570276260376
1718451861157885200,56.55388525390625,1.0177139043807983,0.7795658111572266,1.038799524307251
1718451861207653400,56.6036533203125,1.0456327199935913,2.063554286956787,1.0868767499923706
1718451861257422300,56.65342236328125,1.389234185218811,0.550595223903656,0.5457802414894104
1718451861307191000,56.70319091796875,0.9187884330749512,0.5193012356758118,0.217126727104187
1718451861356960000,56.7529599609375,0.340485155582428,0.25885313749313354,0.36569514870643616
1718451861406729200,56.80272924804687,-0.12261486798524857,-0.2749711275100708,-0.48909351229667664
1718451861456497200,56.8524970703125,-1.77871835231781,-1.3974450826644897,-1.6184709072113037
1718451861506266000,56.90226611328125,-2.1716842651367188,-1.338339924812317,-2.3116862773895264
1718451861556035300,56.95203540039063,-2.2335586547851562,1.3929333686828613,-1.5474766492843628
1718451861605804300,57.00180419921875,-1.4885139465332031,0.023017168045043945,-1.384368896484375
1718451861655572200,57.051572265625,-1.1055412292480469,-0.6684486269950867,-0.21848520636558533
1718451861705341200,57.10134106445312,-0.9423896670341492,-2.128092050552368,-0.0856882706284523
1718451861755110100,57.15111010742187,-0.5950859785079956,-0.4469388723373413,0.4763804078102112
1718451861804879000,57.20087915039063,0.6042251586914062,0.08427999168634415,1.3243380784988403
1718451861854647000,57.25064697265625,-1.4532166719436646,-1.192707896232605,0.005178783088922501
1718451861904416000,57.300416015625,-0.7905106544494629,-0.5750030875205994,-0.10944367200136185
1718451861954185200,57.350185302734374,2.0011725425720215,1.3643357753753662,0.9942799806594849
1718451862003954200,57.3999541015625,-0.8588595986366272,-0.3248499929904938,-1.6266928911209106
1718451862053722000,57.44972216796875,1.2823683023452759,1.5774720907211304,1.4806989431381226
1718451862103491000,57.49949096679688,1.7056877613067627,-0.7425771951675415,0.7247813940048218
1718451862153261300,57.54926123046875,1.2778483629226685,1.75555419921875,1.4747883081436157
1718451862203030000,57.59903002929688,1.1205651760101318,0.7883300185203552,1.227973222732544
1718451862252798200,57.64879809570313,0.6626474857330322,1.9359034299850464,0.9295803904533386
1718451862302567200,57.698567138671876,1.0289908647537231,0.3923989534378052,0.5600318908691406
1718451862352336100,57.748336181640624,1.1329913139343262,0.8119267225265503,0.35295620560646057
1718451862402105000,57.79810498046875,0.3247503936290741,0.554627001285553,0.06673429161310196
1718451862451873000,57.847873046875,0.0361044742166996,0.017536915838718414,-0.6356158256530762
1718451862501642200,57.89764233398437,-1.3043755292892456,-0.6278061270713806,-1.9582172632217407
1718451862551411200,57.9474111328125,-2.1584818363189697,-2.132484197616577,-2.3279457092285156
1718451862601179100,57.99717919921875,-2.4566938877105713,1.0822786092758179,-2.0173401832580566
1718451862650948000,58.046947998046875,-1.4347004890441895,0.242384672164917,-1.7339396476745605
1718451862700717300,58.09671728515625,-1.1983824968338013,-1.4507747888565063,0.1596202850341797
1718451862750486000,58.14648608398438,-1.1196472644805908,-1.661857008934021,0.05655728653073311
1718451862800254200,58.19625415039062,-0.5087774991989136,-0.44399741291999817,0.7720413208007812
1718451862850023000,58.24602294921875,0.7360742688179016,-0.2754691243171692,1.5502727031707764
1718451862899792100,58.295792236328126,-2.6819028854370117,-0.742239236831665,-0.5886526107788086
1718451862949561000,58.34556103515625,-0.9242231249809265,0.006937001831829548,0.1025434210896492
1718451862999329000,58.3953291015625,2.4257607460021973,-0.03632684797048569,1.0494822263717651
1718451863049098000,58.44509790039063,0.118539959192276,-0.2977677583694458,-0.4126181900501251
1718451863098867200,58.4948671875,2.1641104221343994,1.1839463710784912,1.2395344972610474
1718451863148634600,58.544634521484376,1.8277850151062012,-1.1195309162139893,0.655860960483551
1718451863198403800,58.59440380859375,1.129186987876892,0.867099404335022,1.811234712600708
1718451863248172800,58.6441728515625,0.8789214491844177,0.5938364267349243,0.9566572308540344
1718451863297940700,58.69394067382812,0.7376290559768677,1.9100213050842285,1.013227105140686
1718451863347709700,58.74370971679687,1.1932226419448853,0.28073418140411377,0.7706549167633057
1718451863397479000,58.79347900390625,0.9979820847511292,0.9948701858520508,0.16281048953533173
1718451863447246800,58.84324682617188,0.27162033319473267,0.2938747704029083,0.4412083029747009
1718451863497015800,58.893015869140626,-0.20703734457492828,-0.042877692729234695,-0.7648417353630066
1718451863546784500,58.94278442382812,-1.713952660560608,-0.9344885945320129,-2.0063419342041016
1718451863596553700,58.9925537109375,-2.2414920330047607,-1.138381838798523,-2.306417942047119
1718451863646321700,59.04232177734375,-2.2953248023986816,1.1470413208007812,-1.5901074409484863
1718451863696090600,59.09209057617188,-1.6205034255981445,0.6773247122764587,-1.6211340427398682
1718451863745859800,59.14185986328125,-1.2516670227050781,-1.177011251449585,-0.019214972853660583
1718451863795627800,59.19162768554688,-0.9391562938690186,-2.2528235912323,-0.19410955905914307
1718451863845396700,59.241396728515625,-0.4617500603199005,-0.32061344385147095,0.7005109786987305
1718451863895165700,59.29116577148437,0.7374375462532043,-0.4981325566768646,1.212534785270691
1718451863944933600,59.34093359375,-1.0263029336929321,-2.268324613571167,-0.8642055988311768
1718451863994702800,59.39070288085937,-0.8892057538032532,0.19501769542694092,-0.6268002390861511
1718451864044471800,59.44047192382813,2.041269540786743,1.7709376811981201,0.5355159044265747
1718451864094239700,59.49023974609375,-0.24613839387893677,0.4007977545261383,-0.9768975377082825
1718451864144009000,59.54000903320313,2.1352546215057373,0.7247707843780518,1.4515247344970703
1718451864193777400,59.58977734375,1.7506561279296875,-1.2196824550628662,0.6501426100730896
1718451864243546400,59.63954638671875,1.236288070678711,2.0309207439422607,1.8990647792816162
1718451864293315000,59.689315185546874,1.0349704027175903,0.14397208392620087,0.90244060754776
1718451864343083300,59.739083251953126,0.7767370343208313,2.1921937465667725,1.2240098714828491
1718451864392852200,59.788852294921874,1.0950138568878174,0.052985720336437225,0.6618658304214478
1718451864442621200,59.83862109375,1.1730015277862549,0.936653196811676,0.2656729519367218
1718451864492389000,59.88838916015625,0.3684999942779541,0.2706567943096161,0.10750595480203629
1718451864542158300,59.93815844726562,-0.11584510654211044,-0.2658734917640686,-0.8170956373214722
1718451864591927300,59.98792724609375,-1.4611265659332275,-0.9094780087471008,-1.9725109338760376
1718451864641695200,60.0376953125,-2.1515908241271973,-0.8225287199020386,-2.5521974563598633
1718451864691464200,60.087464111328124,-2.4509124755859375,0.8111826181411743,-1.4605166912078857
1718451864741233400,60.1372333984375,-1.7362041473388672,0.6457704901695251,-1.9596617221832275
1718451864791001300,60.18700146484375,-1.1968994140625,-0.4754197895526886,0.5830757021903992
1718451864840770300,60.23677026367187,-1.0833265781402588,-2.6562578678131104,-0.038720231503248215
1718451864890538200,60.28653833007812,-0.5996828675270081,-0.7490606307983398,0.6610516905784607
1718451864940307200,60.33630712890625,0.6333918571472168,-0.24663828313350677,1.3867173194885254
1718451864990076400,60.38607641601563,-1.1349114179611206,-1.8468595743179321,-0.6070539951324463
1718451865039844400,60.43584423828125,-0.9201370477676392,-0.617685854434967,-0.5169797539710999
1718451865089613300,60.48561328125,1.9770972728729248,1.9866409301757812,0.0033214944414794445
1718451865139381200,60.53538134765625,-0.23220713436603546,0.993882417678833,-1.0246222019195557
1718451865189150000,60.58514990234375,1.8796979188919067,1.4334912300109863,1.4685453176498413
1718451865238918700,60.63491870117188,1.7646875381469727,-1.1555184125900269,0.6676816344261169
1718451865288686800,60.68468676757813,1.112917423248291,0.4882516860961914,1.8005975484848022
1718451865338455800,60.734455810546876,0.8818693161010742,0.4791567325592041,1.1815370321273804
1718451865388224000,60.78422412109375,0.8012018799781799,2.1743054389953613,1.1455696821212769
1718451865437992700,60.83399267578125,1.2369184494018555,0.019351860508322716,0.49645477533340454
1718451865487761700,60.88376171875,1.0614150762557983,1.213942050933838,0.5058892965316772
1718451865537529600,60.93352954101562,0.39080023765563965,0.2840423882007599,0.02960902452468872
1718451865587298800,60.983298828125,0.025351429358124733,0.13141927123069763,-0.5294135212898254
1718451865637066800,61.03306665039062,-1.2672287225723267,-0.7000030875205994,-1.5977994203567505
1718451865686835700,61.08283569335938,-2.2575390338897705,-0.7454856038093567,-2.617640256881714
1718451865736604700,61.132604736328126,-2.3201398849487305,0.5262294411659241,-1.3931232690811157
1718451865786372900,61.18237280273438,-1.7011334896087646,0.398873895406723,-1.965675711631775
1718451865836141800,61.232141845703126,-1.1717476844787598,-1.1384068727493286,0.08105277270078659
1718451865885909800,61.28190966796875,-1.1754140853881836,-2.027289628982544,0.08261445164680481
1718451865935678700,61.3316787109375,-0.7724331021308899,-1.3674557209014893,0.666172981262207
1718451865985448000,61.38144799804687,0.40981680154800415,0.1717030555009842,1.413205623626709
1718451866035216000,61.4312158203125,-0.05149328336119652,-2.123234987258911,-0.7492891550064087
1718451866084984800,61.48098486328125,-1.172985553741455,-0.03126950562000275,-0.6831181049346924
1718451866134752800,61.53075268554687,1.1609445810317993,1.9353129863739014,0.9640363454818726
1718451866184521500,61.580521484375,-0.36816737055778503,-0.018265023827552795,-0.47554734349250793
1718451866234289400,61.63028930664063,1.3743122816085815,0.6935678124427795,1.3621879816055298
1718451866284058400,61.680058349609375,1.8682434558868408,0.17347431182861328,0.8673673272132874
1718451866333827600,61.72982763671875,1.3084381818771362,1.9647300243377686,2.5303990840911865
1718451866383595500,61.779595458984375,0.9808824062347412,0.5158425569534302,0.8019832372665405
1718451866433364500,61.82936450195312,0.866121232509613,2.1247718334198,0.92403644323349
