time,seconds_elapsed,z,y,x
1718308881117921300,0.03892138671875,-1.0009613037109375,-0.2612762451171875,0.01531982421875
1718308881170181400,0.091181396484375,-0.94158935546875,-0.280181884765625,0.014007568359375
1718308881219953400,0.140953369140625,-0.9121246337890625,-0.27593994140625,0.042144775390625
1718308881269724400,0.190724365234375,-0.9315948486328125,-0.271240234375,0.029052734375
1718308881319496400,0.240496337890625,-0.965362548828125,-0.2756195068359375,0.0256805419921875
1718308881369267500,0.290267333984375,-0.9749755859375,-0.264129638671875,0.040802001953125
1718308881419039200,0.340039306640625,-0.9307098388671875,-0.3001861572265625,0.0019989013671875
1718308881468810200,0.389810302734375,-0.930938720703125,-0.29010009765625,0.0018157958984375
1718308881518582300,0.439582275390625,-0.962860107421875,-0.2734832763671875,0.0191497802734375
1718308881568353500,0.489353515625,-0.93182373046875,-0.2776336669921875,0.014007568359375
1718308881618125300,0.539125244140625,-0.9405517578125,-0.292633056640625,-0.00323486328125
1718308881667896000,0.58889599609375,-0.9236907958984375,-0.288909912109375,0.0020599365234375
1718308881717668000,0.638668212890625,-0.9513397216796875,-0.268524169921875,0.0234222412109375
1718308881767439000,0.688439208984375,-0.9904022216796875,-0.2811279296875,0.0013885498046875
1718308881817211100,0.738211181640625,-0.9530181884765625,-0.2672576904296875,0.0179290771484375
1718308881866983200,0.787983154296875,-0.96307373046875,-0.2643890380859375,0.017608642578125
1718308881916754000,0.83775390625,-0.9124298095703125,-0.27764892578125,0.01068115234375
1718308881966526000,0.88752587890625,-1.0013885498046875,-0.2233123779296875,-0.0347747802734375
1718308882016297200,0.937297119140625,-0.9358062744140625,-0.2171173095703125,0.1328277587890625
1718308882066068200,0.987068115234375,-1.1363067626953125,-0.1622772216796875,0.0308990478515625
1718308882115840300,1.03684033203125,-1.1226348876953125,-0.3826751708984375,-0.15350341796875
1718308882165611000,1.086611083984375,-0.6631317138671875,-0.2915802001953125,0.0221405029296875
1718308882215383000,1.136383056640625,-1.166412353515625,-0.2909393310546875,0.2327728271484375
1718308882265154000,1.186154052734375,-0.8631591796875,-0.2028656005859375,0.3037567138671875
1718308882314926000,1.235926025390625,-0.835601806640625,-0.4710845947265625,-0.059600830078125
1718308882364697300,1.285697265625,-0.7151336669921875,-0.4061126708984375,-0.0222930908203125
1718308882414469000,1.33546923828125,-0.8795928955078125,-0.3182525634765625,-0.2709503173828125
1718308882464240000,1.385240234375,-0.7138671875,-0.4156646728515625,0.2175140380859375
1718308882514012200,1.43501220703125,-1.0571441650390625,-0.3625640869140625,-0.208282470703125
1718308882563783200,1.484783203125,-0.98052978515625,-0.321533203125,-0.03228759765625
1718308882613555200,1.53455517578125,-1.023345947265625,-0.3606109619140625,-0.2075347900390625
1718308882663326000,1.584325927734375,-1.0261077880859375,-0.3368377685546875,-0.0973052978515625
1718308882713098000,1.634097900390625,-0.8769073486328125,-0.38360595703125,-0.21533203125
1718308882762869000,1.683868896484375,-0.9406280517578125,-0.3334503173828125,-0.168365478515625
1718308882812641000,1.73364111328125,-0.891021728515625,-0.3054656982421875,-0.2138671875
1718308882862412300,1.783412353515625,-0.9676361083984375,-0.254364013671875,-0.1708221435546875
1718308882912183000,1.83318310546875,-0.995880126953125,-0.2777862548828125,-0.2306365966796875
1718308882961955000,1.882955078125,-0.908416748046875,-0.27520751953125,-0.1627349853515625
1718308883011726000,1.93272607421875,-0.9180145263671875,-0.308258056640625,-0.2060089111328125
1718308883061498000,1.982498046875,-0.920501708984375,-0.30419921875,-0.1951751708984375
1718308883111269000,2.03226904296875,-0.86566162109375,-0.301666259765625,-0.220306396484375
1718308883161041000,2.082041015625,-0.938720703125,-0.2801666259765625,-0.186431884765625
1718308883210812200,2.131812255859375,-0.9638519287109375,-0.24896240234375,-0.177734375
1718308883260584200,2.181584228515625,-0.9958953857421875,-0.2160797119140625,-0.1452484130859375
1718308883310355200,2.231355224609375,-0.880828857421875,-0.3100128173828125,-0.2152862548828125
1718308883360127200,2.281127197265625,-0.927459716796875,-0.3099365234375,-0.343231201171875
1718308883409898000,2.33089794921875,-0.7099456787109375,-0.2554779052734375,-0.2483062744140625
1718308883459670000,2.380669921875,-0.842376708984375,-0.192413330078125,-0.33062744140625
1718308883509441000,2.43044091796875,-0.785308837890625,-0.209075927734375,-0.3078765869140625
1718308883569167000,2.4901669921875,-0.8836669921875,-0.1296539306640625,-0.2415771484375
1718308883618938000,2.539938232421875,-0.887847900390625,-0.0150299072265625,-0.165618896484375
1718308883668709600,2.589709716796875,-1.0187225341796875,0.0270843505859375,-0.256927490234375
1718308883718481000,2.63948095703125,-1.03363037109375,0.0952911376953125,-0.160888671875
1718308883768253000,2.6892529296875,-1.0059661865234375,0.058135986328125,-0.2475128173828125
1718308883818024000,2.73902392578125,-1.0182647705078125,0.1077423095703125,-0.25054931640625
1718308883867794700,2.788794677734375,-0.92724609375,0.1196136474609375,-0.265960693359375
1718308883917566700,2.838566650390625,-0.8345947265625,0.1754302978515625,-0.3079986572265625
1718308883967337700,2.888337646484375,-0.5689697265625,0.094268798828125,-0.453033447265625
1718308884017109800,2.93810986328125,-0.418975830078125,0.180511474609375,-0.445831298828125
1718308884066881000,2.987881103515625,-0.405914306640625,0.4192962646484375,-0.4187469482421875
1718308884116653000,3.037653076171875,-0.053070068359375,0.556243896484375,-0.546173095703125
1718308884166423800,3.087423828125,-0.523529052734375,0.6282806396484375,-1.1490325927734375
1718308884216194800,3.13719482421875,-0.38861083984375,0.575958251953125,-1.2028656005859375
1718308884265966800,3.186966796875,-0.5127410888671875,0.411865234375,-1.5675201416015625
1718308884315737900,3.23673779296875,0.0809783935546875,0.04205322265625,-1.778472900390625
1718308884365509600,3.286509521484375,0.349151611328125,-0.4897003173828125,-2.246490478515625
1718308884415281000,3.336281005859375,1.576385498046875,0.3692474365234375,-0.3680267333984375
1718308884465053000,3.386052978515625,-0.2434844970703125,0.3176727294921875,-0.718475341796875
1718308884514824000,3.435823974609375,-0.0651397705078125,0.5474853515625,-0.0849609375
1718308884564594700,3.4855947265625,-0.2519683837890625,0.7408599853515625,-1.24078369140625
1718308884614366700,3.53536669921875,-0.0781402587890625,0.7309722900390625,-1.290985107421875
1718308884664138000,3.585137939453125,-0.1025238037109375,0.720306396484375,-1.1953582763671875
1718308884713910000,3.634909912109375,-0.1131439208984375,0.0397491455078125,-0.512664794921875
1718308884763681000,3.684680908203125,-0.066741943359375,0.47955322265625,-0.8092041015625
1718308884813453000,3.734453125,-0.1397857666015625,0.7415924072265625,-0.936187744140625
1718308884863224000,3.78422412109375,0.0807952880859375,0.72882080078125,-0.488861083984375
1718308884912996000,3.83399609375,0.4034881591796875,-0.5720672607421875,-0.587188720703125
1718308884962767000,3.88376708984375,0.1873779296875,0.749786376953125,-0.7868499755859375
1718308885012537900,3.933537841796875,-0.092010498046875,0.8485260009765625,-0.6074676513671875
1718308885062310000,3.983309814453125,-0.260955810546875,1.1798553466796875,-0.4528656005859375
1718308885112081200,4.0330810546875,0.145843505859375,1.2596588134765625,0.2334136962890625
1718308885161853200,4.082853271484375,-0.1071624755859375,1.256256103515625,0.0249176025390625
1718308885211624000,4.1326240234375,0.0186920166015625,1.10546875,0.3230743408203125
1718308885261395000,4.18239501953125,-0.076507568359375,1.413238525390625,0.07958984375
1718308885311167000,4.2321669921875,-0.039825439453125,0.7251129150390625,-0.0381011962890625
1718308885360938000,4.28193798828125,0.053558349609375,0.846923828125,0.0149078369140625
1718308885410709000,4.331708984375,-0.0194244384765625,0.872528076171875,0.0035552978515625
1718308885460481000,4.38148095703125,0.02166748046875,0.3913726806640625,-0.127471923828125
1718308885510252000,4.431251953125,-0.024658203125,1.3125457763671875,0.0152435302734375
1718308885560024000,4.481024169921875,0.0323028564453125,0.84326171875,0.316680908203125
1718308885609795000,4.530795166015625,0.081146240234375,1.0757598876953125,0.674652099609375
1718308885659565600,4.580565673828125,0.0715484619140625,0.9360198974609375,0.3947601318359375
1718308885709337600,4.630337646484375,0.0494842529296875,0.563873291015625,0.0657196044921875
1718308885759108900,4.68010888671875,0.01043701171875,1.0284576416015625,0.0798797607421875
1718308885808879600,4.729879638671875,0.0416717529296875,1.0194091796875,0.3024444580078125
1718308885858651600,4.779651611328125,0.147674560546875,1.03411865234375,0.240386962890625
1718308885908422700,4.829422607421875,0.3011932373046875,1.0989532470703125,0.25128173828125
1718308885958194700,4.879194580078125,0.2076873779296875,1.1999969482421875,0.400726318359375
1718308886007965700,4.928965576171875,-0.3473968505859375,0.725067138671875,0.499847412109375
1718308886057736700,4.97873681640625,0.4152984619140625,0.83514404296875,-0.0237884521484375
1718308886107508700,5.0285087890625,0.1027374267578125,0.8168487548828125,0.2227935791015625
1718308886157279700,5.07827978515625,0.1206512451171875,0.7504119873046875,0.173370361328125
1718308886207050800,5.12805078125,0.0749359130859375,0.8500213623046875,0.2317352294921875
1718308886256822800,5.17782275390625,0.13494873046875,1.1064605712890625,0.566436767578125
1718308886306593500,5.227593505859375,0.3681182861328125,1.1630401611328125,0.3314208984375
1718308886356364800,5.27736474609375,0.0784759521484375,1.0892486572265625,0.4407958984375
1718308886406136800,5.32713671875,-0.208984375,0.7730865478515625,0.384552001953125
1718308886455907800,5.376907958984375,0.0191497802734375,1.0106353759765625,0.1836090087890625
1718308886505680000,5.426679931640625,-0.156280517578125,0.835845947265625,0.3425750732421875
1718308886555450600,5.47645068359375,-0.157470703125,0.9540863037109375,0.4027862548828125
1718308886605221600,5.5262216796875,-0.107391357421875,1.2663116455078125,0.2118377685546875
1718308886654993700,5.57599365234375,0.056243896484375,1.3120880126953125,-0.0113372802734375
1718308886704765000,5.625764892578125,0.097442626953125,1.1524810791015625,0.2296295166015625
1718308886754535700,5.67553564453125,-0.1079864501953125,0.9373321533203125,0.218719482421875
1718308886804307700,5.7253076171875,-0.0113983154296875,1.012359619140625,0.1398162841796875
1718308886854078700,5.77507861328125,0.0427703857421875,0.872894287109375,0.172698974609375
1718308886903849700,5.824849609375,0.037567138671875,0.9837646484375,-0.0499725341796875
1718308886953621500,5.87462158203125,-0.0644989013671875,1.0535125732421875,0.2918853759765625
1718308887003392800,5.924392822265625,-0.0256195068359375,0.9931182861328125,0.2249603271484375
1718308887053164800,5.974164794921875,0.061553955078125,0.94952392578125,0.257476806640625
1718308887102935800,6.023935791015625,0.166748046875,0.979034423828125,0.2173004150390625
1718308887152706600,6.07370654296875,0.0074462890625,1.2227325439453125,0.1185150146484375
1718308887202478600,6.123478515625,-0.033233642578125,1.1338043212890625,-0.00506591796875
1718308887252249600,6.17324951171875,0.13116455078125,1.068023681640625,0.118194580078125
1718308887302020900,6.223020751953125,0.09765625,0.9486541748046875,0.19744873046875
1718308887351793000,6.27279296875,0.02362060546875,0.9833831787109375,0.280731201171875
1718308887401563600,6.322563720703125,0.16986083984375,1.1909332275390625,0.214447021484375
1718308887451334700,6.372334716796875,-0.092529296875,1.0867156982421875,0.175994873046875
1718308887501106700,6.422106689453125,0.096771240234375,1.1012420654296875,0.16632080078125
1718308887550877700,6.471877685546875,0.2418670654296875,0.7174835205078125,0.3522491455078125
1718308887600649700,6.521649658203125,0.1505584716796875,0.667327880859375,0.551483154296875
1718308887650420700,6.571420654296875,0.2672576904296875,0.6584930419921875,0.2962646484375
1718308887700191700,6.621191650390625,0.2197418212890625,0.4644622802734375,0.2142333984375
1718308887749963800,6.6709638671875,0.2096710205078125,0.5442657470703125,0.227630615234375
1718308887799734800,6.72073486328125,0.257354736328125,0.652252197265625,0.3965606689453125
1718308887849505500,6.770505615234375,0.457244873046875,0.83294677734375,0.4237213134765625
1718308887899277600,6.820277587890625,0.2446746826171875,1.1606597900390625,0.6566314697265625
1718308887949048800,6.870048828125,0.499420166015625,2.17138671875,0.59381103515625
1718308887998819800,6.91981982421875,0.0374603271484375,0.5499420166015625,-0.001983642578125
1718308888048592000,6.969591796875,-0.52667236328125,0.60052490234375,-0.1839447021484375
1718308888098362600,7.019362548828125,0.2229156494140625,1.392059326171875,-0.08795166015625
1718308888148133600,7.069133544921875,0.1591339111328125,0.9538726806640625,0.0694427490234375
1718308888197905700,7.11890576171875,0.2256317138671875,0.9947967529296875,0.156219482421875
1718308888247677000,7.168677001953125,0.0262451171875,1.03192138671875,0.151397705078125
1718308888297447700,7.21844775390625,-0.252105712890625,1.03948974609375,0.1181182861328125
1718308888347219700,7.2682197265625,-0.1732025146484375,0.99273681640625,0.51690673828125
1718308888396990700,7.31799072265625,-0.16644287109375,0.6358489990234375,0.02117919921875
1718308888446761700,7.36776171875,0.2280731201171875,1.23321533203125,-0.221099853515625
1718308888496533800,7.41753369140625,0.0938720703125,1.05462646484375,-0.0306243896484375
1718308888546304800,7.4673046875,-0.1173858642578125,0.98919677734375,0.152130126953125
1718308888596075800,7.51707568359375,-0.127532958984375,0.9776458740234375,0.1169586181640625
1718308888645847800,7.566847900390625,-0.072509765625,0.9909515380859375,0.11029052734375
1718308888695619300,7.616619384765625,-0.1902618408203125,0.9766693115234375,-0.0176239013671875
1718308888745390300,7.666390380859375,-0.08453369140625,0.9813690185546875,0.0102996826171875
1718308888795162400,7.716162353515625,-0.0594329833984375,1.0058441162109375,0.0078125
1718308888844933600,7.76593359375,-0.02288818359375,1.0196533203125,0.01483154296875
1718308888894704400,7.815704345703125,-0.0869598388671875,0.9927520751953125,0.06304931640625
1718308888944476400,7.865476318359375,-0.0682373046875,0.9764404296875,0.1024017333984375
1718308888994247400,7.915247314453125,0.0078582763671875,1.013885498046875,0.0623626708984375
1718308889044018400,7.965018310546875,0.02081298828125,1.0792999267578125,-0.0482330322265625
1718308889093790200,8.014790283203125,-0.0064544677734375,0.93194580078125,-0.057037353515625
1718308889143561500,8.0645615234375,0.024383544921875,1.0181884765625,0.0662689208984375
1718308889193332500,8.11433251953125,-0.0589599609375,0.9488067626953125,0.0352630615234375
1718308889243104500,8.1641044921875,-0.02947998046875,1.03271484375,0.0006866455078125
1718308889292875300,8.213875244140626,-0.04058837890625,1.0171966552734375,0.0034637451171875
1718308889342646300,8.263646240234374,-0.041748046875,0.968841552734375,0.0300750732421875
1718308889392418300,8.313418212890625,-0.03057861328125,0.97576904296875,0.075653076171875
1718308889442189600,8.363189453125,-0.0068206787109375,1.01324462890625,0.01953125
1718308889491960300,8.412960205078125,0.000701904296875,1.0575714111328125,-0.001190185546875
1718308889541731300,8.4627314453125,-0.07562255859375,0.984283447265625,0.0625457763671875
1718308889591503400,8.51250341796875,0.04888916015625,1.0159912109375,0.2228240966796875
1718308889641274400,8.5622744140625,-0.032135009765625,0.921295166015625,0.152435302734375
1718308889691045000,8.612045166015625,-0.1152801513671875,0.9930419921875,0.1912841796875
1718308889740817200,8.661817138671875,-0.0843353271484375,0.9388580322265625,0.2389068603515625
1718308889790588000,8.711587890625,0.002593994140625,0.9450531005859375,0.2574005126953125
1718308889840359000,8.76135888671875,-0.0511322021484375,1.036590576171875,0.2249603271484375
1718308889890131000,8.811130859375,-0.0453338623046875,1.05322265625,0.2206878662109375
1718308889939902000,8.86090185546875,0.209136962890625,0.9764251708984375,0.3229827880859375
1718308889989673000,8.9106728515625,0.519866943359375,0.8795928955078125,0.5640106201171875
1718308890039444000,8.96044384765625,0.451934814453125,1.024017333984375,0.4583740234375
1718308890089216000,9.010216064453125,0.1866455078125,0.9894561767578125,0.35821533203125
1718308890138987000,9.059987060546876,0.1879730224609375,0.734619140625,0.242706298828125
1718308890188758000,9.109758056640626,0.3088226318359375,0.687225341796875,0.0601806640625
1718308890238530000,9.159530029296874,0.17181396484375,1.0927734375,-0.1103363037109375
1718308890288301000,9.209301025390625,0.2159576416015625,1.26739501953125,-0.1477813720703125
1718308890338072000,9.259072021484375,0.1242523193359375,1.23577880859375,0.0818634033203125
1718308890387842800,9.3088427734375,-0.0453033447265625,1.0433197021484375,0.221710205078125
1718308890437614800,9.35861474609375,-0.07940673828125,1.0865020751953125,0.36883544921875
1718308890487386000,9.40838623046875,-0.0060577392578125,1.0217132568359375,0.4765167236328125
1718308890537157000,9.4581572265625,-0.015411376953125,0.8104705810546875,0.4375762939453125
1718308890586927900,9.507927978515625,0.052886962890625,0.7350311279296875,0.3648529052734375
1718308890636700000,9.557699951171875,0.0935516357421875,0.622100830078125,0.3005523681640625
1718308890686470700,9.607470703125,0.4164276123046875,0.6579437255859375,0.15771484375
1718308890736242000,9.657241943359375,0.6718292236328125,0.8616943359375,0.3482818603515625
1718308890786013000,9.707012939453126,0.7403717041015625,1.3403167724609375,0.17919921875
1718308890835785000,9.756784912109374,0.3054046630859375,0.463531494140625,0.4888458251953125
1718308890885555700,9.8065556640625,-0.0702972412109375,1.907867431640625,0.668121337890625
1718308890935326700,9.85632666015625,0.1786041259765625,0.7708892822265625,0.197235107421875
1718308890985098000,9.906097900390625,-0.591949462890625,0.3142242431640625,-0.4498748779296875
1718308891034870000,9.9558701171875,0.3101959228515625,1.7999725341796875,-0.2418670654296875
1718308891084640800,10.005640869140626,-0.0050048828125,0.765472412109375,0.3846893310546875
1718308891134411800,10.055411865234374,0.0153350830078125,0.9345855712890625,0.1090545654296875
1718308891184182800,10.105182861328124,-0.14385986328125,0.91259765625,-0.0916595458984375
1718308891233954800,10.154954833984375,-0.039337158203125,1.030975341796875,-0.1640167236328125
1718308891283725800,10.204725830078125,0.0103912353515625,0.9962615966796875,0.0887298583984375
1718308891333496800,10.254496826171875,-0.0228118896484375,0.9237518310546875,0.178558349609375
1718308891383267800,10.304267822265626,0.0176849365234375,0.9359588623046875,-0.0258636474609375
1718308891433038800,10.354038818359374,-0.0457916259765625,0.9810333251953125,-0.03680419921875
1718308891482810600,10.403810546875,-0.02471923828125,1.095703125,-0.0433349609375
1718308891532582000,10.453581787109375,0.0452117919921875,1.0465545654296875,-0.141265869140625
1718308891582353000,10.503352783203125,0.106475830078125,1.1627655029296875,-0.2066192626953125
1718308891632124000,10.5531240234375,0.0865936279296875,1.26348876953125,-0.046142578125
1718308891681895000,10.60289501953125,-0.235260009765625,1.4432220458984375,0.1266021728515625
1718308891731667000,10.6526669921875,0.0035400390625,1.027740478515625,0.6255645751953125
1718308891781438000,10.70243798828125,-0.265899658203125,1.083709716796875,0.070770263671875
1718308891831209000,10.752208984375,-0.101318359375,1.1716766357421875,-0.046112060546875
1718308891880980000,10.80197998046875,-0.2566680908203125,0.864471435546875,-0.0008544921875
1718308891930751000,10.8517509765625,0.0326080322265625,0.7895355224609375,0.1779937744140625
1718308891980522800,10.901522705078126,0.0139617919921875,0.722808837890625,0.3726043701171875
1718308892030294000,10.9512939453125,0.1123504638671875,0.6678009033203125,0.286712646484375
1718308892080065000,11.00106494140625,0.2796173095703125,0.61041259765625,0.11083984375
1718308892129836000,11.0508359375,0.4882965087890625,0.7212982177734375,-0.011016845703125
1718308892179607000,11.10060693359375,0.9895172119140625,1.19287109375,-0.06658935546875
1718308892229378800,11.15037890625,0.3145599365234375,1.190887451171875,0.48077392578125
1718308892279150000,11.200150146484376,-0.2221832275390625,0.291900634765625,0.473663330078125
1718308892328921000,11.249921142578126,0.3484344482421875,2.11834716796875,0.441741943359375
1718308892378691800,11.29969189453125,0.1098785400390625,0.662841796875,-0.126434326171875
1718308892428463000,11.349463134765625,-0.3362274169921875,0.580291748046875,-0.2913055419921875
1718308892478234000,11.399234130859375,-0.1331329345703125,1.406463623046875,-0.3559112548828125
1718308892528006100,11.449006103515625,0.207733154296875,0.97222900390625,0.347198486328125
1718308892577777000,11.49877685546875,-0.1480560302734375,0.877838134765625,0.150909423828125
1718308892627548000,11.5485478515625,-0.0885772705078125,0.957855224609375,-0.067779541015625
1718308892677318700,11.598318603515626,-0.0504608154296875,1.012115478515625,-0.1339263916015625
1718308892727089400,11.64808935546875,0.0345306396484375,0.97509765625,0.0361785888671875
1718308892776860400,11.6978603515625,-0.05743408203125,0.9413909912109375,0.1472930908203125
1718308892826632400,11.747632568359375,-0.0080718994140625,1.0061798095703125,-0.1146392822265625
1718308892876403500,11.797403564453125,0.0150909423828125,1.07073974609375,-0.022613525390625
1718308892926174500,11.847174560546875,0.0172271728515625,0.9591217041015625,-0.09173583984375
1718308892975945500,11.896945556640626,0.042205810546875,1.1383819580078125,-0.2209014892578125
1718308893025716500,11.946716552734374,0.1718292236328125,1.3200225830078125,-0.0281829833984375
1718308893075487500,11.996487548828124,-0.12744140625,1.2973175048828125,0.052642822265625
1718308893125258500,12.046258544921875,-0.0037994384765625,1.1181488037109375,0.544403076171875
1718308893175030500,12.096030517578125,-0.26263427734375,1.152252197265625,-0.0626983642578125
1718308893224801500,12.145801513671875,-0.0855560302734375,1.370880126953125,-0.0172119140625
1718308893274572300,12.195572265625,-0.2238006591796875,0.7262725830078125,0.187225341796875
1718308893324343600,12.245343505859376,-0.0013275146484375,0.7878570556640625,0.21722412109375
1718308893374114600,12.295114501953124,0.0681610107421875,0.591400146484375,0.187713623046875
1718308893423885600,12.344885498046875,0.195709228515625,0.6847686767578125,0.1001129150390625
1718308893473656300,12.39465625,0.37921142578125,0.605712890625,0.203765869140625
1718308893523427600,12.444427490234375,0.53094482421875,0.705352783203125,0.0641632080078125
1718308893573199600,12.49419970703125,0.93121337890625,1.28533935546875,0.0051116943359375
1718308893622970600,12.543970703125,0.4451751708984375,1.109100341796875,0.3436279296875
1718308893672742100,12.5937421875,-0.5437469482421875,0.80023193359375,0.67108154296875
1718308893722513200,12.64351318359375,0.8250885009765625,1.9506683349609375,0.3367156982421875
1718308893772284200,12.6932841796875,-0.88604736328125,0.043243408203125,-0.342071533203125
1718308893822055400,12.743055419921875,0.5914154052734375,1.3537750244140625,-0.276275634765625
1718308893871826200,12.792826171875,-0.472381591796875,0.86236572265625,-0.2498626708984375
1718308893921597200,12.84259716796875,0.1276397705078125,0.87664794921875,0.3493804931640625
1718308893971369200,12.892369140625,0.109130859375,0.9900360107421875,-0.00115966796875
1718308894021140200,12.94214013671875,-0.037109375,0.9745941162109375,-0.072845458984375
1718308894070911200,12.9919111328125,0.0157928466796875,0.9582672119140625,-0.0695648193359375
1718308894120682200,13.04168212890625,-0.0013580322265625,0.94091796875,-0.0074615478515625
1718308894170453200,13.091453369140625,0.107330322265625,0.97296142578125,-0.0393829345703125
1718308894220224300,13.141224365234375,-0.0049285888671875,1.0467376708984375,-0.1615753173828125
1718308894269995300,13.190995361328126,0.05816650390625,1.2449493408203125,-0.2185516357421875
1718308894319766300,13.240766357421874,0.15924072265625,1.1485748291015625,-0.0139007568359375
1718308894369537000,13.290537109375,0.1561431884765625,1.4259185791015625,-0.092254638671875
1718308894419308300,13.340308349609375,-0.0368194580078125,1.2019805908203125,0.663360595703125
1718308894469079300,13.390079345703125,-0.125091552734375,1.229766845703125,0.5328521728515625
1718308894518851300,13.439851318359375,-0.086151123046875,1.265045166015625,-0.1154022216796875
1718308894568622000,13.4896220703125,-0.1337890625,0.7360687255859375,-0.038970947265625
1718308894618393000,13.53939306640625,-0.031951904296875,0.639068603515625,0.1825103759765625
1718308894668163600,13.58916357421875,0.046966552734375,0.6210174560546875,0.30303955078125
1718308894717934300,13.638934326171874,0.166259765625,0.7118682861328125,0.2559661865234375
1718308894767705300,13.688705322265625,0.432159423828125,0.7237091064453125,0.221893310546875
1718308894817476600,13.7384765625,0.51800537109375,0.7127532958984375,0.0419464111328125
1718308894867247600,13.78824755859375,0.5753173828125,0.9329071044921875,0.0740203857421875
1718308894917018400,13.838018310546875,0.8441314697265625,1.51544189453125,0.254974365234375
1718308894966789400,13.887789306640625,0.3218841552734375,0.4203948974609375,0.3451690673828125
1718308895016560600,13.937560546875,-0.412872314453125,1.674713134765625,0.4545135498046875
1718308895066331400,13.987331298828124,0.4554595947265625,1.1624603271484375,0.30291748046875
1718308895116102400,14.037102294921874,-1.1492919921875,-0.0370025634765625,-0.350128173828125
1718308895165873400,14.086873291015625,0.5670623779296875,1.87322998046875,-0.56427001953125
1718308895215644700,14.136644775390625,-0.2271575927734375,0.8387298583984375,0.040740966796875
1718308895265415400,14.18641552734375,-0.040496826171875,0.8086090087890625,0.2125396728515625
1718308895315186400,14.2361865234375,0.0133056640625,0.9769287109375,-0.0783843994140625
1718308895364957700,14.285957763671876,-0.056884765625,1.0384368896484375,-0.2911834716796875
1718308895414728400,14.335728515625,0.0435333251953125,1.0049896240234375,-0.068389892578125
1718308895464499500,14.38549951171875,0.012237548828125,0.925048828125,0.0793914794921875
1718308895514271500,14.435271484375,-0.013580322265625,0.921478271484375,-0.0789794921875
1718308895564042500,14.48504248046875,-0.055694580078125,0.9429931640625,-0.1755218505859375
1718308895613813500,14.5348134765625,0.0595245361328125,1.065216064453125,0.13433837890625
1718308895663585000,14.5845849609375,0.1219329833984375,1.002777099609375,-0.232421875
1718308895713356000,14.63435595703125,0.1697235107421875,1.16253662109375,-0.291595458984375
1718308895763127000,14.684126953125,0.2650604248046875,1.4699554443359375,-0.14019775390625
1718308895812898000,14.73389794921875,-0.1646575927734375,1.3591766357421875,0.351898193359375
1718308895862669000,14.7836689453125,-0.0763092041015625,1.121429443359375,0.7234039306640625
1718308895912440000,14.833440185546875,-0.1092987060546875,1.20294189453125,-0.15802001953125
1718308895962211000,14.883211181640625,-0.0924835205078125,0.8679046630859375,0.13818359375
1718308896011982000,14.932982177734376,0.1726837158203125,0.753875732421875,0.2826385498046875
1718308896061753000,14.982753173828126,0.2286834716796875,0.7534027099609375,0.3718109130859375
1718308896111524000,15.032524169921874,0.4507598876953125,0.8901824951171875,0.0980224609375
1718308896161294800,15.082294921875,0.210357666015625,0.57562255859375,-0.086944580078125
1718308896211065000,15.132065185546875,0.1237335205078125,0.6108551025390625,0.130767822265625
1718308896260836000,15.181836181640625,0.0721893310546875,0.668975830078125,0.3236083984375
1718308896310606800,15.23160693359375,0.0601806640625,0.664276123046875,0.637969970703125
1718308896360378000,15.281378173828125,0.2961883544921875,1.34893798828125,0.9753265380859375
1718308896410149000,15.331149169921876,0.032470703125,0.995452880859375,0.621917724609375
1718308896459920000,15.380919921875,-0.250762939453125,1.194000244140625,0.329986572265625
1718308896509691000,15.43069091796875,0.32122802734375,1.3255157470703125,-0.3861083984375
1718308896559462100,15.480462158203125,-0.2486572265625,0.4754791259765625,-0.0725250244140625
1718308896609233000,15.53023291015625,0.4215850830078125,1.286529541015625,0.4308319091796875
1718308896659004000,15.58000390625,0.0569305419921875,0.9121551513671875,-0.087738037109375
1718308896708775200,15.629775146484375,-0.05712890625,0.94085693359375,0.089324951171875
1718308896758546400,15.67954638671875,-0.106048583984375,1.0710601806640625,0.2616729736328125
1718308896808317400,15.7293173828125,0.06500244140625,0.962158203125,0.3421478271484375
1718308896858088400,15.77908837890625,-0.1413116455078125,0.93145751953125,0.0980987548828125
1718308896907859200,15.828859130859374,-0.1755218505859375,0.9514923095703125,0.0012054443359375
1718308896957630500,15.87863037109375,0.0838470458984375,1.0746612548828125,0.1461334228515625
1718308897007401500,15.9284013671875,0.035797119140625,1.009979248046875,0.229461669921875
1718308897057172200,15.978172119140625,-0.00128173828125,1.03509521484375,0.2096405029296875
1718308897106943500,16.027943603515624,-0.073883056640625,0.9228363037109375,0.17181396484375
1718308897156714500,16.077714599609376,-0.126983642578125,1.0397796630859375,0.071685791015625
1718308897206484200,16.127484130859376,0.0085296630859375,1.018402099609375,0.1169586181640625
1718308897256255500,16.17725537109375,0.020660400390625,0.9764404296875,0.1935272216796875
1718308897306026500,16.227026611328125,-0.028594970703125,0.9249420166015625,0.2298736572265625
1718308897355797200,16.27679736328125,-0.031585693359375,0.983673095703125,0.2243804931640625
1718308897405568300,16.326568359375,0.04388427734375,0.9467620849609375,0.1672210693359375
1718308897455339500,16.376339599609373,0.037628173828125,0.9861907958984375,0.1634063720703125
1718308897505110500,16.426110595703125,0.040924072265625,0.9632415771484375,0.1691131591796875
1718308897554881300,16.47588134765625,0.036285400390625,0.9816741943359375,0.1904754638671875
1718308897604652300,16.52565234375,-0.0222320556640625,0.9878387451171875,0.2072296142578125
1718308897654423600,16.575423583984374,0.0046234130859375,0.9746246337890625,0.2019500732421875
1718308897704192500,16.625192626953126,-0.0087890625,0.9351043701171875,0.179443359375
1718308897753963500,16.674963623046875,-0.0537109375,0.9893646240234375,0.114471435546875
1718308897803734300,16.724734375,0.008148193359375,0.973602294921875,0.1434173583984375
1718308897853505300,16.77450537109375,0.012908935546875,1.018280029296875,0.1558990478515625
1718308897903276500,16.824276611328123,-0.038055419921875,1.02490234375,0.181610107421875
1718308897953047300,16.87404736328125,-0.0756683349609375,1.024078369140625,0.1828765869140625
1718308898002818300,16.923818359375,-0.1331329345703125,0.9302215576171875,0.1800079345703125
1718308898052589300,16.97358935546875,-0.07806396484375,1.0238494873046875,0.1443328857421875
1718308898102359300,17.023359375,-0.0144805908203125,1.0039520263671875,0.152862548828125
1718308898152130300,17.07313037109375,-0.033843994140625,0.974761962890625,0.15521240234375
1718308898201901300,17.1229013671875,-0.05010986328125,0.9636077880859375,0.15496826171875
1718308898251672300,17.17267236328125,0.0105438232421875,0.9841766357421875,0.190185546875
1718308898301443300,17.222443359375,0.0445098876953125,0.952178955078125,0.178955078125
1718308898351214300,17.27221435546875,0.038787841796875,0.9592742919921875,0.1707305908203125
1718308898400984300,17.321984375,0.075927734375,0.9877166748046875,0.1339569091796875
1718308898450755300,17.37175537109375,0.074798583984375,0.9759521484375,0.15509033203125
1718308898500526300,17.4215263671875,0.0454864501953125,0.98291015625,0.1257171630859375
1718308898550297300,17.47129736328125,0.0521392822265625,1.0088043212890625,0.1249237060546875
1718308898600068400,17.521068359375,0.02099609375,0.9441680908203125,0.183929443359375
1718308898649839400,17.57083935546875,-0.0549468994140625,0.9391326904296875,0.156646728515625
1718308898699609600,17.620609619140627,-0.0584259033203125,0.98248291015625,0.18426513671875
1718308898749380600,17.670380615234375,-0.0008697509765625,0.9763946533203125,0.1584320068359375
1718308898799151400,17.7201513671875,0.035919189453125,1.032806396484375,0.1385040283203125
1718308898848922400,17.76992236328125,-0.0652618408203125,1.023712158203125,0.17633056640625
1718308898898693600,17.819693603515624,-0.0878448486328125,0.98358154296875,0.17132568359375
1718308898948463400,17.86946337890625,-0.06378173828125,0.9769439697265625,0.1622314453125
1718308898998234600,17.919234619140624,-0.0227203369140625,1.027252197265625,0.1383514404296875
1718308899048005600,17.969005615234376,-0.0185699462890625,0.97509765625,0.209503173828125
1718308899097776400,18.0187763671875,-0.0217742919921875,0.9665374755859375,0.1646575927734375
1718308899147547400,18.06854736328125,0.001739501953125,0.97998046875,0.1753387451171875
1718308899197317600,18.118317626953125,0.0493621826171875,0.984527587890625,0.172088623046875
1718308899247088400,18.16808837890625,0.0468597412109375,0.95062255859375,0.168304443359375
1718308899296859400,18.217859375,0.076446533203125,0.96185302734375,0.1327667236328125
1718308899346630700,18.267630615234374,0.062591552734375,1.00421142578125,0.120574951171875
1718308899396400400,18.317400390625,0.08038330078125,1.00103759765625,0.20855712890625
1718308899446171600,18.367171630859374,0.0244903564453125,0.9683685302734375,0.2032012939453125
1718308899495942700,18.416942626953126,-0.0254058837890625,0.9480438232421875,0.13934326171875
1718308899545713400,18.46671337890625,-0.0348052978515625,0.957794189453125,0.1823883056640625
1718308899595483600,18.516483642578127,-0.037841796875,0.971466064453125,0.1782989501953125
1718308899645254700,18.566254638671875,0.03521728515625,0.9832763671875,0.1730194091796875
1718308899695025400,18.616025390625,0.0441436767578125,1.014068603515625,0.1329498291015625
1718308899744796400,18.66579638671875,-0.008636474609375,0.9931793212890625,0.058441162109375
1718308899794566400,18.71556640625,-0.0653533935546875,1.0346832275390625,0.1031646728515625
1718308899844337400,18.76533740234375,-0.0645904541015625,0.9967041015625,0.246002197265625
1718308899894108400,18.8151083984375,-0.0876312255859375,0.9610137939453125,0.25091552734375
1718308899943879400,18.86487939453125,-0.076904296875,1.0039520263671875,0.136932373046875
1718308899993649400,18.9146494140625,0.0081024169921875,1.0145721435546875,0.1289520263671875
1718308900043420700,18.964420654296877,-0.006072998046875,1.00213623046875,0.1201171875
1718308900093191400,19.01419140625,-0.02252197265625,0.955413818359375,0.2478790283203125
1718308900142961400,19.06396142578125,-0.0002593994140625,0.9608154296875,0.2297210693359375
1718308900192732700,19.113732666015625,0.0616912841796875,0.9779205322265625,0.131744384765625
1718308900242503400,19.16350341796875,0.0854034423828125,0.969757080078125,0.12628173828125
1718308900292273400,19.2132734375,0.0690765380859375,0.9671783447265625,0.1612701416015625
1718308900342044700,19.263044677734374,0.078338623046875,0.974395751953125,0.15301513671875
1718308900391815400,19.3128154296875,0.0530242919921875,0.98504638671875,0.134796142578125
1718308900441585700,19.362585693359375,0.0560302734375,0.986175537109375,0.1257171630859375
1718308900491356400,19.4123564453125,0.0016937255859375,0.9496917724609375,0.16473388671875
1718308900541127400,19.46212744140625,-0.03814697265625,0.963958740234375,0.196502685546875
1718308900590897700,19.511897705078123,-0.0179901123046875,0.974090576171875,0.175933837890625
1718308900640668400,19.56166845703125,0.0068359375,0.9876556396484375,0.1263275146484375
1718308900690439700,19.611439697265624,-0.0371246337890625,1.0098724365234375,0.1678924560546875
1718308900740210000,19.6612099609375,-0.0501861572265625,1.0175933837890625,0.1504364013671875
1718308900789980700,19.710980712890624,-0.068389892578125,0.9969024658203125,0.1895294189453125
1718308900839751700,19.760751708984376,-0.073333740234375,0.971893310546875,0.2642364501953125
1718308900889522000,19.81052197265625,-0.074066162109375,0.9969940185546875,0.214935302734375
1718308900939292700,19.860292724609376,-0.03558349609375,1.00384521484375,0.1280059814453125
1718308900989063700,19.910063720703125,0.0212554931640625,1.0047760009765625,0.100128173828125
1718308901038833700,19.959833740234377,-0.000152587890625,0.981353759765625,0.206207275390625
1718308901088604700,20.009604736328125,0.005157470703125,0.943878173828125,0.229522705078125
1718308901138375700,20.059375732421874,0.0358428955078125,0.964996337890625,0.13641357421875
1718308901188145700,20.109145751953125,0.08013916015625,0.9619903564453125,0.1140594482421875
1718308901237916700,20.158916748046874,0.04803466796875,0.9963226318359375,0.149383544921875
1718308901287687700,20.208687744140626,0.0558319091796875,0.9903564453125,0.15118408203125
1718308901337457700,20.258457763671874,0.0633392333984375,0.98260498046875,0.11163330078125
1718308901387228700,20.308228759765626,-0.001220703125,0.9956817626953125,0.13055419921875
1718308901436999000,20.3579990234375,-0.001190185546875,0.9532318115234375,0.1998291015625
1718308901486769700,20.407769775390626,-0.0304412841796875,0.9797515869140625,0.2226104736328125
1718308901536540700,20.457540771484375,-0.04412841796875,0.941925048828125,0.16070556640625
1718308901586310700,20.507310546875,-0.027069091796875,0.9884185791015625,0.106231689453125
1718308901636081700,20.55708154296875,-0.001739501953125,1.0035247802734375,0.170867919921875
1718308901685852000,20.606851806640623,-0.0619354248046875,1.0144805908203125,0.243682861328125
1718308901735623000,20.656622802734375,-0.0192413330078125,1.02105712890625,0.1845703125
1718308901785394000,20.706393798828124,-0.1722412109375,0.9526214599609375,0.1268463134765625
1718308901835164000,20.756163818359376,-0.1446685791015625,0.986602783203125,0.2125091552734375
1718308901884935000,20.805934814453124,-0.07623291015625,0.98785400390625,0.2187652587890625
1718308901934705000,20.855704833984376,-0.070068359375,0.985992431640625,0.197052001953125
1718308901984476000,20.905475830078124,-0.036163330078125,0.9820404052734375,0.1438140869140625
1718308902034246000,20.955245849609376,0.0020294189453125,0.9765167236328125,0.19049072265625
1718308902084017000,21.005016845703125,0.04388427734375,0.93438720703125,0.199188232421875
1718308902133788000,21.054787841796873,0.0292205810546875,0.964385986328125,0.1704864501953125
1718308902183557600,21.1045576171875,0.087371826171875,0.97113037109375,0.1608428955078125
1718308902233329000,21.154328857421874,0.088592529296875,0.989898681640625,0.1572723388671875
1718308902283099000,21.204098876953125,0.0819091796875,0.9806671142578125,0.1665802001953125
1718308902332870000,21.253869873046874,0.069091796875,0.9775543212890625,0.152923583984375
1718308902382639900,21.303639892578126,0.0081024169921875,0.9825439453125,0.1417694091796875
1718308902432411000,21.353410888671874,-0.02203369140625,0.9633331298828125,0.2086181640625
1718308902482180900,21.403180908203126,-0.0026702880859375,0.9468231201171875,0.168182373046875
1718308902531951900,21.452951904296874,0.01812744140625,0.9822845458984375,0.1325836181640625
1718308902581721900,21.502721923828126,-0.00457763671875,1.0040130615234375,0.1457061767578125
1718308902631492900,21.552492919921875,-0.0225067138671875,1.001068115234375,0.2287445068359375
1718308902681264000,21.60226416015625,-0.0588836669921875,1.0117340087890625,0.21929931640625
1718308902731034400,21.652034423828123,-0.11199951171875,0.996551513671875,0.2046356201171875
1718308902780805000,21.70180517578125,-0.1312713623046875,0.9363555908203125,0.203369140625
1718308902830575000,21.7515751953125,-0.061004638671875,1.01934814453125,0.11273193359375
1718308902880346400,21.801346435546876,-0.0459747314453125,1.00927734375,0.1515655517578125
1718308902930116000,21.8511162109375,-0.0457916259765625,0.9579925537109375,0.247039794921875
1718308902979887400,21.900887451171876,-0.043548583984375,0.9400787353515625,0.2066650390625
1718308903029657000,21.950656982421876,0.013763427734375,0.9630584716796875,0.1191253662109375
1718308903079428000,22.000427978515624,-0.007354736328125,0.97723388671875,0.1616973876953125
1718308903129198300,22.0501982421875,0.08526611328125,0.953948974609375,0.1236419677734375
1718308903178969000,22.099968994140625,0.1500396728515625,1.020660400390625,0.14471435546875
1718308903228739300,22.1497392578125,0.146392822265625,0.996429443359375,0.2111358642578125
1718308903278510300,22.19951025390625,0.0754241943359375,0.985107421875,0.1619720458984375
1718308903328280300,22.2492802734375,0.0436553955078125,0.9620361328125,0.113861083984375
1718308903378051300,22.29905126953125,-0.0032958984375,0.9750823974609375,0.1302337646484375
1718308903427821000,22.348821044921873,-0.0404510498046875,0.9486541748046875,0.1877288818359375
1718308903477591300,22.39859130859375,-0.0222320556640625,0.9671630859375,0.1580047607421875
1718308903527362300,22.4483623046875,-0.0142822265625,1.0033111572265625,0.163177490234375
1718308903577132300,22.49813232421875,0.003204345703125,1.0036163330078125,0.1900634765625
1718308903626903300,22.5479033203125,0.0250244140625,0.9975738525390625,0.1349945068359375
1718308903676672500,22.597672607421874,-0.058868408203125,1.031768798828125,0.1167449951171875
1718308903726443500,22.647443603515626,-0.15130615234375,0.9569091796875,0.21697998046875
1718308903776213500,22.697213623046874,-0.1370849609375,0.9661407470703125,0.249847412109375
1718308903825984500,22.746984619140626,-0.0540771484375,1.00531005859375,0.192291259765625
1718308903875754500,22.79675439453125,-0.0040740966796875,1.00457763671875,0.1385650634765625
1718308903925525500,22.846525390625,-0.0043487548828125,1.0076904296875,0.1468505859375
1718308903975295500,22.89629541015625,-0.006439208984375,0.9456939697265625,0.2068023681640625
1718308904025065500,22.9460654296875,0.0676727294921875,0.967193603515625,0.1411895751953125
1718308904074836500,22.99583642578125,0.0849761962890625,0.9670257568359375,0.09844970703125
1718308904124606700,23.045606689453123,0.033905029296875,0.9564666748046875,0.16339111328125
1718308904174377500,23.09537744140625,0.0744171142578125,0.97662353515625,0.18853759765625
1718308904224147500,23.1451474609375,0.06787109375,0.99432373046875,0.1400299072265625
1718308904273918700,23.194918701171876,0.068817138671875,0.995880126953125,0.10931396484375
1718308904323688400,23.2446884765625,-0.005218505859375,0.9687652587890625,0.163909912109375
1718308904373458700,23.294458740234376,-0.02880859375,0.93768310546875,0.2105712890625
1718308904423229400,23.3442294921875,-0.01007080078125,0.9628753662109375,0.1640167236328125
1718308904472999700,23.393999755859376,0.021240234375,1.0080718994140625,0.1118011474609375
1718308904522770400,23.4437705078125,0.023529052734375,0.9948272705078125,0.1524505615234375
1718308904572540400,23.49354052734375,-0.041351318359375,0.9842987060546875,0.1673126220703125
1718308904622310700,23.543310546875,-0.078857421875,1.021392822265625,0.1986846923828125
1718308904672082000,23.59308203125,-0.0676727294921875,0.9695892333984375,0.1925506591796875
1718308904721852200,23.64285205078125,-0.1101531982421875,1.0078582763671875,0.1571502685546875
1718308904771623200,23.692623046875,-0.0933990478515625,0.99053955078125,0.1768646240234375
1718308904821393000,23.742392822265625,-0.0661773681640625,1.0020294189453125,0.1748046875
1718308904871163100,23.7921630859375,-0.02606201171875,1.001190185546875,0.1733245849609375
1718308904920934000,23.841933837890625,-0.075469970703125,0.961029052734375,0.2184906005859375
1718308904970704100,23.8917041015625,-0.0636749267578125,0.96417236328125,0.208251953125
1718308905020475000,23.941474853515626,0.008209228515625,0.952423095703125,0.1615753173828125
1718308905070245000,23.9912451171875,0.0654754638671875,0.9571075439453125,0.1242218017578125
1718308905120014800,24.041014892578126,0.1151580810546875,0.9853363037109375,0.12652587890625
1718308905169785900,24.090785888671874,0.1438751220703125,1.0039825439453125,0.139404296875
1718308905219556000,24.14055615234375,0.1019439697265625,0.972137451171875,0.1472625732421875
1718308905269326000,24.190326171875,0.050262451171875,0.98016357421875,0.1764678955078125
1718308905319097000,24.24009716796875,0.0285186767578125,0.9670867919921875,0.1551513671875
1718308905368866800,24.28986669921875,-0.0143585205078125,0.9550018310546875,0.165863037109375
1718308905418637000,24.339636962890626,-0.0440826416015625,0.9534759521484375,0.170440673828125
1718308905468408000,24.389407958984375,-0.0184326171875,0.9821624755859375,0.132843017578125
1718308905518178000,24.439177978515627,-0.01251220703125,1.0047149658203125,0.167816162109375
1718308905567949000,24.488948974609375,-0.0138092041015625,0.9841156005859375,0.208770751953125
1718308905617719000,24.538718994140623,-0.04254150390625,1.025390625,0.1411285400390625
1718308905667489000,24.588489013671875,-0.1078033447265625,0.9937286376953125,0.1985931396484375
1718308905717260300,24.63826025390625,-0.142181396484375,0.969024658203125,0.2126312255859375
1718308905767030300,24.6880302734375,-0.0718536376953125,0.99603271484375,0.14178466796875
1718308905816800300,24.73780029296875,-0.035308837890625,1.0088348388671875,0.158050537109375
1718308905866571500,24.787571533203124,-0.0534210205078125,0.9885406494140625,0.1907501220703125
1718308905916341200,24.83734130859375,-0.0418548583984375,0.958251953125,0.1881561279296875
1718308905966111500,24.887111572265624,-0.0103759765625,0.9734954833984375,0.1872100830078125
1718308906015882200,24.93688232421875,0.038787841796875,0.951995849609375,0.157867431640625
1718308906065652500,24.986652587890624,0.1003265380859375,0.9817047119140625,0.12939453125
1718308906115422200,25.036422119140624,0.10223388671875,0.979583740234375,0.1457672119140625
1718308906165193200,25.086193115234376,0.0798797607421875,0.9823150634765625,0.160064697265625
1718308906214963500,25.13596337890625,0.0816802978515625,0.9850616455078125,0.156494140625
1718308906264733400,25.1857333984375,0.053985595703125,0.9684295654296875,0.1804046630859375
1718308906314504400,25.23550439453125,0.03314208984375,0.9618377685546875,0.1550750732421875
1718308906364274200,25.285274169921873,-0.0593719482421875,0.9783782958984375,0.151336669921875
1718308906414044400,25.33504443359375,-0.0228118896484375,0.9439849853515625,0.171661376953125
1718308906463814100,25.384814208984373,-0.008270263671875,0.98919677734375,0.1339263916015625
1718308906513585400,25.43458544921875,-0.0052032470703125,0.9900665283203125,0.171539306640625
1718308906563355400,25.48435546875,-0.0504302978515625,1.0002288818359375,0.1362152099609375
1718308906613125400,25.53412548828125,-0.1051788330078125,1.035308837890625,0.1619415283203125
1718308906662896400,25.583896484375,-0.09814453125,0.95892333984375,0.290252685546875
1718308906712665600,25.63366552734375,-0.062591552734375,0.96661376953125,0.167510986328125
1718308906762435600,25.683435546875,-0.04656982421875,1.0003509521484375,0.0898590087890625
1718308906812205600,25.73320556640625,-0.020294189453125,1.0278778076171875,0.1627044677734375
1718308906861976600,25.7829765625,0.013671875,0.9767608642578125,0.193756103515625
1718308906911746800,25.832746826171874,0.0464324951171875,0.9802093505859375,0.226806640625
1718308906961516500,25.8825166015625,0.0140228271484375,0.991546630859375,0.1977691650390625
1718308907011287800,25.932287841796875,0.0069732666015625,0.946441650390625,0.1709747314453125
1718308907061057500,25.9820576171875,0.04705810546875,0.9550933837890625,0.117462158203125
1718308907110827800,26.031827880859375,0.0523223876953125,0.961090087890625,0.1019439697265625
1718308907160597500,26.081597412109375,0.0402069091796875,1.0012969970703125,0.1659393310546875
1718308907210368500,26.131368408203127,0.0117950439453125,0.972137451171875,0.2336578369140625
1718308907260138800,26.181138671875,0.0111083984375,0.9749755859375,0.2104339599609375
1718308907309908700,26.23090869140625,0.0043792724609375,0.9941253662109375,0.1567230224609375
1718308907359678700,26.2806787109375,0.037689208984375,0.939117431640625,0.1112060546875
1718308907409449500,26.330449462890623,0.02587890625,0.974517822265625,0.1616668701171875
1718308907459219700,26.3802197265625,-0.003662109375,0.981231689453125,0.1612396240234375
1718308907508989700,26.42998974609375,0.0203399658203125,0.9922027587890625,0.129608154296875
1718308907558759700,26.479759765625,0.0311126708984375,1.0204925537109375,0.17230224609375
1718308907608530700,26.52953076171875,-0.0374603271484375,1.0186004638671875,0.1597747802734375
1718308907658300700,26.57930078125,-0.1495513916015625,0.9660797119140625,0.204833984375
1718308907708070400,26.6290703125,-0.1472930908203125,0.9830780029296875,0.1688232421875
1718308907757840600,26.678840576171876,-0.0825653076171875,0.964080810546875,0.1829833984375
1718308907807610600,26.728610595703124,-0.0336761474609375,1.0156402587890625,0.178314208984375
1718308907857381600,26.778381591796876,-0.0057220458984375,1.010101318359375,0.1737823486328125
1718308907907151600,26.828151611328124,-0.014923095703125,0.9754180908203125,0.1837615966796875
1718308907956921600,26.877921630859376,-0.0383453369140625,0.9867706298828125,0.1884307861328125
1718308908006691600,26.927691650390624,-0.0049285888671875,0.9671478271484375,0.2216033935546875
1718308908056461600,26.977461669921876,0.0312957763671875,0.9365997314453125,0.193115234375
1718308908106232600,27.027232666015625,0.106048583984375,0.996063232421875,0.0984649658203125
1718308908156002600,27.07700244140625,0.08636474609375,0.9895782470703125,0.1368255615234375
1718308908205772500,27.1267724609375,0.097259521484375,0.9731292724609375,0.1656036376953125
1718308908255542500,27.17654248046875,0.0746612548828125,0.9853668212890625,0.14837646484375
1718308908305313500,27.2263134765625,0.037750244140625,0.968414306640625,0.1053619384765625
1718308908355083800,27.276083740234377,0.037353515625,0.987945556640625,0.1387786865234375
1718308908404853500,27.325853515625,-0.022552490234375,0.9298553466796875,0.2047882080078125
1718308908454623700,27.375623779296873,-0.0024871826171875,0.964447021484375,0.122772216796875
1718308908504393500,27.4253935546875,0.02099609375,1.0181884765625,0.114501953125
1718308908554163700,27.475163818359373,0.0016937255859375,1.0172119140625,0.21966552734375
1718308908603934500,27.5249345703125,-0.04888916015625,0.974151611328125,0.2422332763671875
1718308908653704700,27.57470458984375,-0.0940093994140625,1.0106353759765625,0.1453094482421875
1718308908703474400,27.624474365234374,-0.0882720947265625,0.9983062744140625,0.136138916015625
1718308908753244400,27.674244384765625,-0.0663604736328125,0.9976348876953125,0.1491851806640625
1718308908803014400,27.724014404296874,-0.022796630859375,0.978759765625,0.1542205810546875
1718308908852784400,27.773784423828126,-0.0329437255859375,0.9960784912109375,0.1701507568359375
1718308908902555400,27.823555419921874,-0.03466796875,0.976806640625,0.22161865234375
1718308908952325600,27.87332568359375,-0.0383453369140625,0.993316650390625,0.23822021484375
1718308909002095400,27.923095458984374,0.0328216552734375,0.9481353759765625,0.218963623046875
1718308909051865600,27.972865478515626,0.0560302734375,0.9599456787109375,0.1488494873046875
1718308909101635600,28.022635498046874,0.0703582763671875,0.9644317626953125,0.0964813232421875
1718308909151405600,28.072405517578126,0.0839996337890625,0.9472808837890625,0.122955322265625
1718308909201176300,28.12217626953125,0.06036376953125,1.0004730224609375,0.1485137939453125
1718308909250946600,28.171946533203126,0.041229248046875,0.9816131591796875,0.1732940673828125
1718308909300716300,28.22171630859375,0.039459228515625,0.999298095703125,0.1912078857421875
1718308909350486500,28.271486572265626,0.0467681884765625,0.97540283203125,0.1671600341796875
1718308909400256500,28.321256591796875,-0.00177001953125,0.9708709716796875,0.141204833984375
1718308909450026500,28.371026611328126,0.0068817138671875,0.93682861328125,0.1624603271484375
1718308909499797500,28.420797607421875,0.00885009765625,0.986907958984375,0.1559295654296875
1718308909549567500,28.4705673828125,-0.0101165771484375,1.005889892578125,0.1744232177734375
1718308909599337500,28.52033740234375,-0.0025177001953125,0.9950408935546875,0.16595458984375
1718308909649107500,28.570107421875,-0.0449371337890625,1.0208740234375,0.1415863037109375
1718308909698878200,28.619878173828123,-0.0537567138671875,1.032562255859375,0.1937713623046875
1718308909748648400,28.6696484375,-0.1103973388671875,0.9387969970703125,0.2559051513671875
1718308909798418200,28.719418212890623,-0.095367431640625,0.981719970703125,0.229736328125
1718308909848189400,28.769189453125,0.0016632080078125,1.001861572265625,0.15283203125
1718308909897959400,28.81895947265625,0.0395965576171875,1.0311737060546875,0.1414031982421875
1718308909947729400,28.8687294921875,0.0395355224609375,0.952972412109375,0.2070465087890625
1718308909997499400,28.91849951171875,0.0287628173828125,0.976837158203125,0.1954803466796875
1718308910047269400,28.968269287109376,0.0562286376953125,0.964019775390625,0.12811279296875
1718308910097039400,29.018039306640624,0.0649566650390625,0.96087646484375,0.1514892578125
1718308910146809300,29.067809326171876,0.0737152099609375,0.9931640625,0.1995391845703125
1718308910196579600,29.11757958984375,0.0874481201171875,0.967559814453125,0.19073486328125
1718308910246349300,29.167349365234376,0.03497314453125,0.9841461181640625,0.181182861328125
1718308910296120300,29.217120361328124,0.032440185546875,0.9907989501953125,0.1315460205078125
1718308910345890300,29.266890380859376,-0.0036468505859375,0.9510040283203125,0.1533355712890625
1718308910395660300,29.316660400390624,-0.03851318359375,0.945556640625,0.1983184814453125
1718308910445430300,29.36643017578125,-0.0174407958984375,0.9747772216796875,0.1477508544921875
1718308910495200500,29.416200439453124,-0.009002685546875,0.985870361328125,0.13232421875
1718308910544970200,29.46597021484375,-0.015289306640625,1.0002899169921875,0.18011474609375
1718308910594740500,29.515740478515625,-0.028411865234375,0.997650146484375,0.18359375
1718308910644510200,29.56551025390625,-0.0417633056640625,1.0332183837890625,0.1367950439453125
1718308910694280200,29.6152802734375,-0.154754638671875,0.993408203125,0.191131591796875
1718308910744051200,29.66505126953125,-0.1314544677734375,0.960418701171875,0.278717041015625
1718308910793821400,29.714821533203125,-0.09283447265625,0.977935791015625,0.251983642578125
1718308910843591200,29.764591064453125,-0.0578460693359375,0.9992828369140625,0.1710052490234375
1718308910893361400,29.814361328125,-0.013458251953125,0.9910888671875,0.1417694091796875
1718308910943131100,29.864131103515625,-0.002716064453125,0.9674224853515625,0.1722564697265625
1718308910992901400,29.9139013671875,0.000579833984375,0.9802398681640625,0.1752166748046875
1718308911042671000,29.963671142578125,0.015625,0.9741363525390625,0.104888916015625
1718308911092441300,30.01344140625,0.026702880859375,0.9605712890625,0.117431640625
1718308911142211000,30.063211181640625,0.0220947265625,0.968048095703125,0.1717987060546875
1718308911191981300,30.112981201171873,0.0364227294921875,0.9868316650390625,0.1861114501953125
1718308911241752000,30.162751953125,0.0854034423828125,0.9963531494140625,0.1977691650390625
1718308911291522300,30.212522216796874,0.0381622314453125,0.9600067138671875,0.2153778076171875
1718308911341292000,30.2622919921875,0.0120391845703125,0.9395904541015625,0.1310577392578125
1718308911391062300,30.312062255859374,0.02716064453125,0.9835357666015625,0.0666656494140625
1718308911440832300,30.361832275390626,-0.0615692138671875,0.96380615234375,0.1107330322265625
1718308911490602200,30.411602294921874,-0.023773193359375,1.0462188720703125,0.2154083251953125
1718308911540372200,30.461372314453126,-0.02374267578125,1.01092529296875,0.2478179931640625
1718308911590142200,30.51114208984375,-0.0609283447265625,0.9177703857421875,0.2427978515625
1718308911639912200,30.560912109375,-0.064056396484375,0.9611968994140625,0.1383056640625
1718308911689682400,30.610682373046874,-0.03790283203125,0.958282470703125,0.1207275390625
1718308911739453400,30.660453369140626,0.0315093994140625,0.9816131591796875,0.150115966796875
1718308911789223400,30.710223388671874,0.061431884765625,1.0391998291015625,0.1815338134765625
1718308911838993400,30.759993408203126,0.1284027099609375,1.068389892578125,0.2184600830078125
1718308911888763400,30.809763427734374,-0.0019073486328125,0.963287353515625,0.185699462890625
1718308911938533400,30.859533447265626,-0.0953826904296875,0.9490203857421875,0.1234283447265625
1718308911988303400,30.909303466796874,-0.00921630859375,0.975494384765625,0.15020751953125
1718308912038073300,30.9590732421875,-0.0166015625,0.9951934814453125,0.2415771484375
1718308912087843300,31.00884326171875,-0.0124664306640625,0.958831787109375,0.2160797119140625
1718308912137613300,31.05861328125,0.0494842529296875,0.97674560546875,0.13494873046875
1718308912187384300,31.10838427734375,0.1244659423828125,0.983306884765625,0.0983123779296875
1718308912237154600,31.158154541015627,0.0598602294921875,0.9833984375,0.1504364013671875
1718308912286924300,31.20792431640625,0.0748748779296875,0.9712982177734375,0.16302490234375
1718308912336694500,31.257694580078127,0.1217041015625,1.0121307373046875,0.1368560791015625
1718308912386464300,31.30746435546875,0.0580902099609375,0.9665985107421875,0.15716552734375
1718308912436234500,31.357234375,0.0271453857421875,0.99853515625,0.1359710693359375
1718308912486004500,31.40700439453125,-0.0692901611328125,0.9242706298828125,0.17730712890625
1718308912535774500,31.4567744140625,-0.0948638916015625,0.9784088134765625,0.2421875
1718308912585544400,31.50654443359375,-0.0369873046875,0.9672698974609375,0.1665802001953125
1718308912635314400,31.556314453125,0.025634765625,0.9899444580078125,0.17041015625
1718308912685085200,31.606085205078124,0.037933349609375,0.9617462158203125,0.1847686767578125
1718308912734855400,31.65585546875,0.025299072265625,1.0279998779296875,0.137237548828125
1718308912784625400,31.70562548828125,0.046173095703125,0.9709320068359375,0.132904052734375
1718308912834395400,31.7553955078125,0.045196533203125,1.0121307373046875,0.17767333984375
1718308912884165400,31.805165283203124,0.059417724609375,1.0445098876953125,0.1774749755859375
1718308912933935400,31.854935302734376,0.01007080078125,0.9607086181640625,0.18951416015625
1718308912983705300,31.904705322265624,-0.058074951171875,0.97265625,0.172332763671875
1718308913033475300,31.954475341796876,-0.0226593017578125,0.992218017578125,0.17230224609375
1718308913083246600,32.00424658203125,0.01025390625,1.002410888671875,0.207977294921875
1718308913133016300,32.05401635742187,-0.042327880859375,0.963165283203125,0.241424560546875
1718308913182786600,32.10378662109375,-0.0218658447265625,0.936767578125,0.1618804931640625
1718308913232556300,32.153556396484376,-0.0181121826171875,0.975250244140625,0.098602294921875
1718308913282326500,32.20332641601563,0.07879638671875,0.9916839599609375,0.1340789794921875
1718308913332096300,32.25309619140625,0.157501220703125,0.9945526123046875,0.1652069091796875
1718308913381866500,32.302866455078124,0.1309814453125,0.98748779296875,0.15411376953125
1718308913431636200,32.35263623046875,0.0994110107421875,1.03814697265625,0.110076904296875
1718308913481406500,32.40240649414063,-0.10333251953125,0.9420318603515625,0.14129638671875
1718308913531177200,32.45217724609375,-0.0965423583984375,0.9242401123046875,0.2293853759765625
1718308913580947500,32.50194750976563,-0.1044464111328125,0.9767913818359375,0.177886962890625
1718308913630717200,32.55171728515625,-0.0201873779296875,0.9492034912109375,0.107666015625
1718308913680486400,32.601486328125,0.0569610595703125,1.0000152587890625,0.112396240234375
1718308913730256600,32.65125659179687,0.0705108642578125,1.021942138671875,0.134002685546875
1718308913780026400,32.7010263671875,0.0073699951171875,1.0053558349609375,0.1952667236328125
1718308913829796600,32.75079663085938,-0.005096435546875,0.9658966064453125,0.1697998046875
1718308913879567600,32.800567626953125,-0.012115478515625,1.0114898681640625,0.12823486328125
1718308913929337600,32.85033764648438,-0.0303802490234375,1.027252197265625,0.176666259765625
1718308913979107600,32.90010766601562,-0.0536956787109375,0.963775634765625,0.222381591796875
1718308914028877600,32.94987768554687,-0.0650482177734375,0.9775390625,0.18035888671875
1718308914078647600,32.9996474609375,-0.06341552734375,0.98675537109375,0.1409454345703125
1718308914128417500,33.04941748046875,-0.0484466552734375,0.97064208984375,0.1759796142578125
1718308914178187500,33.0991875,-0.0261688232421875,0.984619140625,0.1993255615234375
1718308914227958500,33.14895849609375,-0.02252197265625,0.939422607421875,0.130584716796875
1718308914277728500,33.198728515625,0.1175994873046875,0.9788665771484375,0.11444091796875
1718308914327498500,33.24849853515625,0.1466217041015625,1.0322265625,0.107421875
1718308914377268500,33.2982685546875,0.0767364501953125,0.98321533203125,0.14984130859375
1718308914427038500,33.34803857421875,-0.0122833251953125,0.9472198486328125,0.1497344970703125
1718308914476808400,33.39780834960938,-0.056243896484375,1.0022125244140625,0.1328277587890625
1718308914526578400,33.44757836914062,-0.0782470703125,0.9395294189453125,0.204071044921875
1718308914576349400,33.49734936523438,-0.035736083984375,0.97503662109375,0.1692657470703125
1718308914626119700,33.54711962890625,-0.0020599365234375,0.9734039306640625,0.163818359375
1718308914675889400,33.596889404296874,0.01495361328125,0.9640350341796875,0.14837646484375
1718308914725659400,33.646659423828126,0.0447845458984375,1.0013580322265625,0.087188720703125
1718308914775429400,33.69642944335938,0.035980224609375,1.025726318359375,0.1585235595703125
1718308914825199400,33.74619946289062,0.00286865234375,0.9975433349609375,0.223846435546875
1718308914874970400,33.79597045898438,-0.0048065185546875,1.020538330078125,0.2271270751953125
1718308914924740600,33.84574072265625,-0.03704833984375,0.996002197265625,0.20233154296875
1718308914974510300,33.89551025390625,-0.0501556396484375,0.9613494873046875,0.16473388671875
1718308915024280600,33.94528051757813,-0.0493316650390625,0.9764556884765625,0.1472625732421875
1718308915074050300,33.99505029296875,-0.0136566162109375,0.98187255859375,0.1627197265625
1718308915123821600,34.04482153320313,-0.007843017578125,0.9639739990234375,0.1888580322265625
1718308915173591300,34.09459130859375,0.0063323974609375,0.9847259521484375,0.1671600341796875
1718308915223361500,34.14436157226562,0.01483154296875,0.96868896484375,0.16162109375
1718308915273131300,34.19413134765625,0.154144287109375,0.9265289306640625,0.078155517578125
1718308915322901500,34.24390161132813,0.126861572265625,1.0470733642578125,0.0928497314453125
1718308915372671500,34.29367138671875,0.0554962158203125,1.0246429443359375,0.229644775390625
1718308915422442500,34.3434423828125,-0.0474090576171875,0.9387054443359375,0.2809600830078125
1718308915472212500,34.39321240234375,-0.110992431640625,0.965484619140625,0.140716552734375
1718308915521982500,34.442982421875,-0.102142333984375,1.0044097900390625,0.1184844970703125
1718308915571752400,34.49275244140625,-0.0169525146484375,0.94537353515625,0.19384765625
1718308915621522400,34.5425224609375,0.0126953125,1.0173797607421875,0.2068634033203125
1718308915671292400,34.59229248046875,0.0243988037109375,0.9855194091796875,0.14141845703125
1718308915721064400,34.642064453125,-0.0157928466796875,0.9716644287109375,0.1375579833984375
1718308915770834400,34.69183447265625,-0.0309600830078125,0.9821624755859375,0.161376953125
1718308915820604400,34.7416044921875,0.0043182373046875,0.9851531982421875,0.2247314453125
1718308915870374400,34.79137451171875,0.0362701416015625,1.01873779296875,0.176727294921875
1718308915920144400,34.84114428710937,-0.0167388916015625,1.0026092529296875,0.176361083984375
1718308915969915400,34.89091528320313,-0.0635223388671875,0.95574951171875,0.206207275390625
1718308916019685600,34.940685546875,-0.0366973876953125,0.971038818359375,0.1789703369140625
1718308916069455400,34.990455322265625,0.00323486328125,0.9816436767578125,0.1587066650390625
1718308916119225600,35.0402255859375,0.020904541015625,0.975311279296875,0.2036895751953125
1718308916168995300,35.08999536132813,0.062103271484375,0.9860382080078125,0.1354522705078125
1718308916218766300,35.13976635742188,0.1200103759765625,0.958953857421875,0.1839141845703125
1718308916268536300,35.18953637695312,0.14349365234375,0.9864654541015625,0.0609588623046875
1718308916318306600,35.239306640625,0.1011962890625,1.0119171142578125,0.14093017578125
1718308916368076300,35.289076171875,0.0495758056640625,0.9721832275390625,0.2419891357421875
1718308916417846500,35.33884643554688,-0.0018157958984375,0.9741973876953125,0.20855712890625
1718308916467616300,35.3886162109375,-0.0220489501953125,0.9387664794921875,0.1305389404296875
1718308916517387300,35.43838720703125,-0.09442138671875,0.988616943359375,0.1464080810546875
1718308916567157500,35.48815747070312,-0.0889434814453125,0.991241455078125,0.198272705078125
1718308916616927500,35.537927490234374,-0.1133880615234375,0.9697723388671875,0.2630767822265625
1718308916666697500,35.587697509765626,-0.0935821533203125,0.958465576171875,0.2386627197265625
1718308916716467000,35.637467041015626,-0.042510986328125,0.96588134765625,0.185760498046875
1718308916766238000,35.687238037109374,-0.018310546875,1.0214080810546875,0.1101531982421875
1718308916816008200,35.73700830078125,0.026824951171875,0.9875335693359375,0.13677978515625
1718308916865778000,35.78677783203125,0.0392303466796875,1.021148681640625,0.159820556640625
1718308916915548200,35.83654809570312,0.0406494140625,1.0220489501953125,0.1788177490234375
1718308916965318000,35.88631787109375,-0.028717041015625,1.0018310546875,0.2295684814453125
1718308917015089200,35.93608911132812,-0.11572265625,0.9431610107421875,0.2632904052734375
1718308917064859000,35.98585888671875,-0.07562255859375,0.9246673583984375,0.1663818359375
1718308917114629000,36.035629150390626,-0.0404052734375,0.9862518310546875,0.1095733642578125
1718308917164398800,36.08539892578125,0.0637969970703125,0.970489501953125,0.121795654296875
1718308917214169000,36.13516918945312,0.06085205078125,1.0235137939453125,0.220184326171875
1718308917263940000,36.18494018554688,0.0492706298828125,0.9213714599609375,0.1894073486328125
1718308917313710000,36.2347099609375,0.090423583984375,0.980133056640625,0.083251953125
1718308917363480000,36.28447998046875,0.09423828125,1.0081329345703125,0.1636962890625
1718308917413250000,36.33425,0.0696868896484375,0.9814453125,0.210540771484375
1718308917463020000,36.38402001953125,-0.008209228515625,0.94354248046875,0.188507080078125
1718308917512790000,36.4337900390625,-0.051849365234375,0.964447021484375,0.185516357421875
1718308917562561000,36.48356103515625,-0.112518310546875,0.9708709716796875,0.1783599853515625
1718308917612331000,36.5333310546875,-0.0356903076171875,0.97088623046875,0.1501312255859375
1718308917662101000,36.58310107421875,-0.0250701904296875,1.0060272216796875,0.2262725830078125
1718308917711871200,36.63287133789063,-0.019073486328125,0.983642578125,0.20135498046875
1718308917761641200,36.68264111328125,-0.01763916015625,0.9907989501953125,0.2239837646484375
1718308917811412200,36.732412109375,-0.013275146484375,0.9949493408203125,0.15716552734375
1718308917861182200,36.78218212890625,0.0037078857421875,0.9649810791015625,0.1210479736328125
1718308917910952200,36.8319521484375,0.008148193359375,1.02410888671875,0.141571044921875
1718308917960722200,36.88172216796875,-0.0370941162109375,1.0130157470703125,0.2102813720703125
1718308918010492200,36.9314921875,-0.07611083984375,0.9490966796875,0.2414398193359375
1718308918060263200,36.98126318359375,-0.0864410400390625,0.96649169921875,0.2054443359375
1718308918110033200,37.031033203125,-0.0260009765625,0.9608612060546875,0.1430816650390625
1718308918159803100,37.08080322265625,-0.0057373046875,0.9832763671875,0.1922760009765625
1718308918209573000,37.13057299804687,0.0521240234375,0.9883270263671875,0.214141845703125
1718308918259343000,37.180343017578124,0.0280609130859375,0.9464569091796875,0.2578125
1718308918309114000,37.23011401367187,0.09375,1.005218505859375,0.0869903564453125
1718308918358884000,37.279884033203125,0.161041259765625,0.9405059814453125,0.0635833740234375
1718308918408654300,37.329654296875,0.10992431640625,1.0135498046875,0.2073211669921875
1718308918458424000,37.37942407226563,0.0104217529296875,0.98248291015625,0.2465972900390625
1718308918508194300,37.4291943359375,-0.0814971923828125,0.95684814453125,0.1830902099609375
1718308918557964000,37.478964111328125,-0.1244354248046875,0.935089111328125,0.1632537841796875
1718308918607735000,37.52873510742187,-0.0865478515625,0.945281982421875,0.0973358154296875
1718308918657505000,37.578505126953125,-0.025482177734375,1.0103607177734375,0.1239471435546875
1718308918707275300,37.62827514648438,0.0620574951171875,1.016357421875,0.2262420654296875
1718308918757045000,37.678044921875,0.0232086181640625,0.976318359375,0.2754669189453125
1718308918806815200,37.72781518554687,-0.0149688720703125,0.9689178466796875,0.198211669921875
1718308918856586200,37.77758618164062,0.0035552978515625,0.9851226806640625,0.1567840576171875
1718308918906356200,37.827356201171874,0.0473785400390625,1.0304107666015625,0.1864776611328125
1718308918956126200,37.877126220703126,0.0234527587890625,1.0119781494140625,0.217498779296875
1718308919005896200,37.92689624023438,-0.0462493896484375,0.951751708984375,0.1953582763671875
1718308919055666200,37.97666625976562,-0.0406494140625,0.9767608642578125,0.1420745849609375
1718308919105436200,38.026436279296874,-0.02410888671875,0.97052001953125,0.1566925048828125
1718308919155207200,38.07620727539062,-0.0249176025390625,0.979522705078125,0.1982574462890625
1718308919204977200,38.12597705078125,0.0295562744140625,0.956939697265625,0.22442626953125
1718308919254747100,38.1757470703125,0.093109130859375,1.001251220703125,0.183135986328125
1718308919304517000,38.22551708984375,0.09136962890625,0.936065673828125,0.121002197265625
1718308919354287000,38.275287109375,0.08734130859375,1.015533447265625,0.0654449462890625
1718308919404057000,38.32505712890625,0.1198883056640625,0.9622344970703125,0.2054443359375
1718308919453828000,38.374828125,0.0767669677734375,0.959930419921875,0.2396392822265625
1718308919503598300,38.424598388671875,0.0744781494140625,1.0285491943359375,0.1505279541015625
1718308919553368000,38.4743681640625,-0.1069488525390625,0.9802703857421875,0.1016693115234375
1718308919603138300,38.52413818359375,-0.113616943359375,0.92340087890625,0.2142333984375
1718308919652908000,38.57390795898438,-0.09222412109375,0.9838104248046875,0.2586212158203125
1718308919702677800,38.623677734375,-0.021453857421875,0.9699859619140625,0.2227935791015625
1718308919752448800,38.67344873046875,-0.011260986328125,1.0157318115234375,0.2041778564453125
1718308919802218800,38.72321875,0.0084075927734375,0.9825897216796875,0.1569061279296875
1718308919851988700,38.77298876953125,-0.000274658203125,0.978271484375,0.149566650390625
1718308919901758700,38.8227587890625,0.0380401611328125,1.024078369140625,0.1236572265625
1718308919951528700,38.87252880859375,-0.0106658935546875,1.00030517578125,0.20220947265625
1718308920001298700,38.92229858398437,-0.080902099609375,0.958892822265625,0.2596282958984375
1718308920051069700,38.97206958007813,-0.0846405029296875,0.972625732421875,0.2066497802734375
1718308920100840000,39.02183984375,-0.0496978759765625,0.9851531982421875,0.1433868408203125
1718308920150609700,39.071609619140624,-0.0247039794921875,0.985107421875,0.165618896484375
1718308920200380000,39.1213798828125,-0.0438079833984375,0.998504638671875,0.195892333984375
1718308920250149600,39.17114965820313,0.0164031982421875,0.9494171142578125,0.208465576171875
1718308920299920000,39.220919921875,0.0975189208984375,0.9369354248046875,0.1521148681640625
1718308920349690600,39.27069067382813,0.130157470703125,1.014862060546875,0.091827392578125
1718308920399460900,39.3204609375,0.14697265625,0.978271484375,0.149932861328125
1718308920449230600,39.370230712890624,0.173583984375,1.021148681640625,0.1542205810546875
1718308920499000800,39.420000732421876,0.0205535888671875,0.9764556884765625,0.1872100830078125
1718308920548770600,39.4697705078125,-0.103607177734375,0.9157867431640625,0.2083282470703125
1718308920598540800,39.51954077148437,-0.1373291015625,0.9423370361328125,0.2196044921875
1718308920648310800,39.569310791015624,-0.0951080322265625,0.9688568115234375,0.219390869140625
1718308920698082300,39.619082275390625,-0.0153656005859375,0.9745330810546875,0.1609649658203125
1718308920747852300,39.66885229492188,0.0576324462890625,1.0145263671875,0.1629791259765625
1718308920797622300,39.71862231445313,0.01397705078125,1.026092529296875,0.1990966796875
1718308920847392300,39.76839233398437,-0.03778076171875,0.9542694091796875,0.1755828857421875
1718308920897162200,39.818162353515625,-0.019134521484375,1.0011444091796875,0.1507415771484375
1718308920946932200,39.86793212890625,-0.0086212158203125,1.03460693359375,0.1662445068359375
1718308920996703200,39.917703125,-0.046051025390625,0.993804931640625,0.2220916748046875
1718308921046473200,39.96747314453125,-0.0931243896484375,0.96380615234375,0.1803741455078125
1718308921096243200,40.0172431640625,-0.0769805908203125,0.96429443359375,0.1429595947265625
1718308921146013200,40.06701318359375,-0.0700836181640625,0.9764404296875,0.127227783203125
1718308921195783200,40.116783203125,-0.057037353515625,0.9739990234375,0.1953277587890625
1718308921245553200,40.16655322265625,0.025482177734375,0.9709930419921875,0.21630859375
1718308921295323100,40.2163232421875,0.108001708984375,0.94244384765625,0.1888885498046875
1718308921345093400,40.26609326171875,0.1140899658203125,1.00811767578125,0.096466064453125
1718308921394864400,40.31586450195312,0.1661529541015625,1.012603759765625,0.1346435546875
1718308921444634000,40.36563403320312,0.1876068115234375,0.9833831787109375,0.1739501953125
1718308921494404400,40.415404296875,0.060028076171875,0.98382568359375,0.1414642333984375
1718308921544174000,40.465174072265626,-0.0937957763671875,0.9123992919921875,0.175872802734375
1718308921593944300,40.5149443359375,-0.1766815185546875,0.9677276611328125,0.2126007080078125
1718308921643714300,40.56471435546875,-0.123046875,0.994354248046875,0.2145233154296875
1718308921693483500,40.6144833984375,-0.025421142578125,1.0053863525390625,0.248138427734375
1718308921743254800,40.6642548828125,0.0755615234375,0.9715728759765625,0.145751953125
1718308921793024500,40.7140244140625,0.0048370361328125,1.0087738037109375,0.0936126708984375
1718308921842794800,40.763794677734374,-0.0038604736328125,0.98541259765625,0.1201324462890625
1718308921892564500,40.813564453125,0.020477294921875,0.9653167724609375,0.2055511474609375
1718308921942334700,40.86333471679688,0.03265380859375,1.020538330078125,0.23321533203125
1718308921992104400,40.9131044921875,0.022064208984375,1.0065460205078125,0.1942138671875
1718308922041874700,40.962874755859374,-0.0597686767578125,0.98809814453125,0.1991729736328125
1718308922091644400,41.01264453125,-0.1109161376953125,0.9393768310546875,0.2231903076171875
1718308922141415700,41.062415771484375,-0.0558319091796875,0.993865966796875,0.17608642578125
1718308922191185700,41.112185546875,0.0158538818359375,0.9891357421875,0.1868743896484375
1718308922240955600,41.16195556640625,0.041900634765625,1.0053558349609375,0.207244873046875
1718308922290725600,41.2117255859375,-0.0138397216796875,0.961700439453125,0.23150634765625
1718308922340495600,41.26149560546875,-0.0003814697265625,0.927093505859375,0.104278564453125
1718308922390265600,41.311265625,0.1445159912109375,1.0143890380859375,0.000701904296875
1718308922440035600,41.36103564453125,0.18817138671875,1.0084991455078125,0.1435699462890625
1718308922489805800,41.41080590820312,0.1935272216796875,0.98834228515625,0.2327423095703125
1718308922539575600,41.46057543945312,0.15631103515625,1.004791259765625,0.18017578125
1718308922589346600,41.5103466796875,0.053680419921875,0.9886322021484375,0.1111297607421875
1718308922639116500,41.56011645507812,-0.0578460693359375,0.919036865234375,0.1006317138671875
1718308922688886800,41.60988671875,-0.1771087646484375,0.9764404296875,0.200714111328125
1718308922738657000,41.65965698242187,-0.151702880859375,0.9283599853515625,0.1719970703125
1718308922788426800,41.7094267578125,-0.0258636474609375,1.0445098876953125,0.162628173828125
1718308922838197000,41.759197021484376,0.0363922119140625,0.960418701171875,0.2408447265625
1718308922887967000,41.80896704101563,-0.0786285400390625,0.99688720703125,0.15252685546875
1718308922937737000,41.85873706054687,-0.0853729248046875,0.9745330810546875,0.1554412841796875
1718308922987507000,41.9085068359375,0.0341339111328125,1.0160369873046875,0.1985015869140625
1718308923037277000,41.95827685546875,0.0133514404296875,1.0197906494140625,0.206390380859375
1718308923087048000,42.0080478515625,-0.038543701171875,0.991668701171875,0.1721954345703125
1718308923136818000,42.05781787109375,-0.0953216552734375,0.980682373046875,0.1509552001953125
1718308923186588200,42.10758813476563,-0.0510711669921875,0.983154296875,0.11328125
1718308923236358000,42.15735791015625,-0.035064697265625,0.9834747314453125,0.140899658203125
1718308923286128000,42.207128173828124,-0.0276031494140625,0.9958953857421875,0.1888885498046875
1718308923335897900,42.25689794921875,-0.0704345703125,0.9822235107421875,0.1750946044921875
1718308923385668000,42.30666821289063,-0.070892333984375,0.963775634765625,0.197845458984375
1718308923435437800,42.35643774414063,-0.02691650390625,0.9600372314453125,0.1507568359375
1718308923485208000,42.4062080078125,0.1021575927734375,0.990631103515625,0.0785064697265625
1718308923534977800,42.455977783203124,0.132232666015625,1.000518798828125,0.163726806640625
1718308923584749000,42.5057490234375,0.0814666748046875,0.94049072265625,0.20123291015625
1718308923634518800,42.555518798828125,0.0564422607421875,0.9461669921875,0.179229736328125
1718308923684289000,42.6052890625,0.02227783203125,1.001953125,0.16961669921875
1718308923734058500,42.65505859375,-0.0244140625,0.962554931640625,0.22784423828125
1718308923783828700,42.70482885742187,-0.0876922607421875,0.9927520751953125,0.270172119140625
1718308923833598700,42.7545986328125,-0.0665130615234375,0.899658203125,0.21875
1718308923883368700,42.80436865234375,-0.0321197509765625,1.0042877197265625,0.0140380859375
1718308923933139000,42.85413891601563,0.0363616943359375,1.0097198486328125,-0.0516815185546875
1718308923982908700,42.90390869140625,0.020782470703125,1.065765380859375,0.04888916015625
1718308924032679700,42.9536796875,0.0816192626953125,1.0009307861328125,0.1880950927734375
1718308924082449700,43.00344970703125,0.1376800537109375,1.002960205078125,0.1712188720703125
1718308924132220000,43.053219970703125,0.1090087890625,1.0051727294921875,0.0797119140625
1718308924181989600,43.10298974609375,-0.000274658203125,1.1567535400390625,0.0239410400390625
1718308924231760000,43.152759765625,-0.00897216796875,0.989898681640625,0.198822021484375
1718308924281529600,43.20252954101562,0.03338623046875,1.037689208984375,0.4070281982421875
1718308924331299800,43.2522998046875,0.153900146484375,1.229766845703125,0.6067047119140625
1718308924381069600,43.302069580078125,0.173858642578125,0.5158233642578125,0.208282470703125
1718308924430839800,43.35183984375,0.13848876953125,0.3554229736328125,-0.12322998046875
1718308924480609500,43.40160961914062,0.0201568603515625,0.7254791259765625,0.24188232421875
1718308924530380800,43.451380859375,-0.0237884521484375,1.337738037109375,0.591949462890625
1718308924580150800,43.50115087890625,0.2667388916015625,1.1948699951171875,0.4347381591796875
1718308924629920800,43.550920654296874,0.1502685546875,0.590118408203125,0.1537933349609375
1718308924679690800,43.600690673828126,0.2173309326171875,1.3314666748046875,-0.079254150390625
1718308924729460700,43.65046069335938,0.0694427490234375,1.03924560546875,0.07763671875
1718308924779230700,43.70023071289062,-0.105194091796875,0.7962188720703125,0.3128204345703125
1718308924829000700,43.750000732421874,-0.00860595703125,0.9647369384765625,0.257354736328125
1718308924878770700,43.799770751953126,-0.0045623779296875,1.0328216552734375,0.1807861328125
1718308924928540700,43.84954077148438,-0.027984619140625,0.987457275390625,0.1421661376953125
1718308924978310700,43.899310546875,-0.10205078125,1.0007781982421875,0.259490966796875
1718308925028081700,43.94908154296875,0.02313232421875,0.92596435546875,0.18341064453125
1718308925077851600,43.9988515625,0.007293701171875,1.0387725830078125,0.22467041015625
1718308925127621600,44.04862158203125,0.119781494140625,0.9777679443359375,0.215972900390625
1718308925177391600,44.0983916015625,0.0355072021484375,1.02069091796875,0.1931610107421875
1718308925227161600,44.14816162109375,0.029571533203125,0.9821014404296875,0.164794921875
1718308925276931600,44.197931640625,0.008880615234375,1.0060272216796875,0.21240234375
1718308925326701600,44.24770166015625,-0.041290283203125,0.949859619140625,0.2327117919921875
1718308925376471600,44.297471435546875,-0.0202178955078125,0.9378509521484375,0.213623046875
1718308925426241500,44.34724145507813,0.046417236328125,0.9691162109375,0.19189453125
1718308925476011500,44.39701147460938,0.1419525146484375,0.9272003173828125,0.13427734375
1718308925525782500,44.44678247070313,0.1088714599609375,1.0117340087890625,0.22637939453125
1718308925575552800,44.496552734375,0.1852264404296875,0.970855712890625,0.2406158447265625
1718308925625322500,44.54632250976562,0.05712890625,1.042633056640625,0.2712860107421875
1718308925675092700,44.5960927734375,-0.039306640625,0.9260101318359375,0.2478179931640625
1718308925724862500,44.64586254882813,0.002044677734375,0.9820709228515625,0.1730804443359375
1718308925774632400,44.69563256835937,0.0559234619140625,1.0079803466796875,0.128265380859375
1718308925824402700,44.745402587890624,0.0164947509765625,0.9345550537109375,0.134857177734375
1718308925874172400,44.79517236328125,-0.0078125,1.025604248046875,0.1762237548828125
1718308925923942700,44.84494262695313,0.0035247802734375,0.951995849609375,0.2657623291015625
1718308925973713400,44.89471337890625,-0.006378173828125,0.9794921875,0.3304595947265625
1718308926023483400,44.9444833984375,-0.04718017578125,0.9917449951171875,0.316558837890625
1718308926073253400,44.99425341796875,-0.03253173828125,0.9358062744140625,0.174591064453125
1718308926123023600,45.044023681640624,-0.0196685791015625,0.9660797119140625,0.1926727294921875
1718308926172793300,45.09379345703125,-0.0088348388671875,0.965179443359375,0.1994476318359375
1718308926222563600,45.1435634765625,-0.0215606689453125,0.9915771484375,0.2187652587890625
1718308926272333300,45.19333325195313,0.021240234375,0.97735595703125,0.191925048828125
1718308926322103600,45.243103515625,0.050506591796875,0.99676513671875,0.1852874755859375
1718308926371873300,45.292873291015624,-0.0365142822265625,0.9890594482421875,0.2299957275390625
1718308926421643500,45.3426435546875,-0.0532073974609375,0.9638824462890625,0.2319488525390625
1718308926471414500,45.39241455078125,0.00201416015625,0.934173583984375,0.211761474609375
1718308926521184500,45.4421845703125,0.0141448974609375,0.9476165771484375,0.228363037109375
1718308926570954500,45.49195458984375,0.0958251953125,0.981658935546875,0.1832427978515625
1718308926620724500,45.54172436523437,0.1464385986328125,0.9896392822265625,0.1883697509765625
1718308926670494500,45.591494384765625,0.085357666015625,0.9813232421875,0.20068359375
1718308926720265000,45.64126489257813,0.000335693359375,1.0223846435546875,0.2942962646484375
1718308926770035000,45.69103491210937,-0.0420379638671875,0.9370880126953125,0.2452850341796875
1718308926819805000,45.740804931640625,-0.0501861572265625,0.936431884765625,0.110321044921875
1718308926869575000,45.79057495117188,0.0178680419921875,1.0373382568359375,0.1315765380859375
1718308926919346200,45.84034619140625,-0.02496337890625,0.9591522216796875,0.267822265625
1718308926969116000,45.89011596679688,0.0140228271484375,0.963348388671875,0.27801513671875
1718308927018886100,45.93988623046875,-0.0118560791015625,0.97308349609375,0.1898345947265625
1718308927068655900,45.98965576171875,-0.10260009765625,1.0149383544921875,0.3029327392578125
1718308927118426000,46.039426025390625,-0.006927490234375,0.9296417236328125,0.2336883544921875
1718308927168195800,46.08919580078125,0.017791748046875,0.9344329833984375,0.1607818603515625
1718308927217966000,46.13896606445312,-0.046844482421875,0.9690093994140625,0.206817626953125
1718308927267736000,46.188736083984374,-0.0126495361328125,0.9791412353515625,0.185028076171875
1718308927317507000,46.23850708007812,0.0378875732421875,1.004425048828125,0.1876678466796875
1718308927367276800,46.28827685546875,0.03466796875,1.0005950927734375,0.2320709228515625
1718308927417047000,46.338047119140626,-0.017181396484375,0.9570770263671875,0.244903564453125
1718308927466817000,46.38781713867188,-0.0559844970703125,0.9690704345703125,0.2236328125
1718308927516587000,46.4375869140625,-0.018310546875,0.953948974609375,0.221405029296875
1718308927566357200,46.487357177734374,0.0032196044921875,0.9524993896484375,0.2536163330078125
1718308927616127000,46.537126953125,-0.0062408447265625,0.98358154296875,0.24468994140625
1718308927665898000,46.58689794921875,-0.016204833984375,0.9250335693359375,0.218841552734375
1718308927715667500,46.63666748046875,0.1154937744140625,0.9944000244140625,0.156341552734375
1718308927765437700,46.686437744140626,0.0567474365234375,1.0220489501953125,0.23309326171875
1718308927815207700,46.73620776367188,-0.037445068359375,0.9583740234375,0.3040008544921875
1718308927864977700,46.78597778320312,-0.028656005859375,0.936767578125,0.2426300048828125
1718308927914747600,46.83574755859375,-0.076751708984375,0.9758758544921875,0.177642822265625
1718308927964517600,46.885517578125,-0.0637054443359375,0.991607666015625,0.1919097900390625
1718308928014287600,46.93528759765625,0.0059967041015625,0.9423065185546875,0.17315673828125
1718308928064058600,46.98505859375,-0.01983642578125,1.0151519775390625,0.2178497314453125
1718308928113828600,47.03482861328125,-0.0464324951171875,0.94842529296875,0.2260589599609375
1718308928163598600,47.0845986328125,-0.071075439453125,0.9780120849609375,0.2179718017578125
1718308928213368600,47.13436865234375,-0.0617218017578125,0.97821044921875,0.27972412109375
1718308928263138600,47.184138671875,-0.002716064453125,0.9640655517578125,0.269134521484375
1718308928312908500,47.23390844726563,0.0104827880859375,0.9787750244140625,0.2242431640625
1718308928362678500,47.28367846679687,-0.0630340576171875,0.9390106201171875,0.1808929443359375
1718308928412449500,47.33344946289063,-0.0964202880859375,0.9363555908203125,0.178924560546875
1718308928462219800,47.3832197265625,-0.003997802734375,1.010833740234375,0.17718505859375
1718308928511989500,47.432989501953124,0.012176513671875,1.000396728515625,0.252044677734375
1718308928561759700,47.482759765625,-0.013946533203125,0.9779815673828125,0.2600555419921875
1718308928611529500,47.53252954101563,-0.03997802734375,0.9412078857421875,0.2397613525390625
1718308928661299700,47.5822998046875,0.022369384765625,0.988006591796875,0.1842803955078125
1718308928711069700,47.632069580078124,0.0420074462890625,0.9472503662109375,0.243438720703125
1718308928760840000,47.68183984375,-0.0159454345703125,0.96002197265625,0.2447052001953125
1718308928810610700,47.731610595703124,-0.038482666015625,0.9317474365234375,0.223876953125
1718308928860381000,47.781380859375,0.0485992431640625,1.0074310302734375,0.24676513671875
1718308928910150700,47.83115063476563,0.04498291015625,0.8998870849609375,0.217987060546875
1718308928959921000,47.8809208984375,0.01397705078125,0.9933319091796875,0.2359466552734375
1718308929009691000,47.93069091796875,-0.02764892578125,1.012054443359375,0.2531890869140625
1718308929059460900,47.9804609375,-0.0656280517578125,0.997222900390625,0.2135772705078125
1718308929109230800,48.03023095703125,-0.034149169921875,0.9206390380859375,0.1543121337890625
1718308929159000800,48.08000073242187,-0.0344085693359375,0.996246337890625,0.1737060546875
1718308929208771800,48.12977172851563,-0.048248291015625,0.9644775390625,0.26593017578125
1718308929258541800,48.17954174804687,-0.0309906005859375,0.9583892822265625,0.26544189453125
1718308929308312000,48.22931201171875,-0.00714111328125,0.994537353515625,0.22955322265625
1718308929358081800,48.27908178710938,-0.016357421875,0.9347381591796875,0.2257843017578125
1718308929407852000,48.32885205078125,-0.00543212890625,0.9947662353515625,0.1895294189453125
1718308929457621800,48.37862182617187,-0.0175018310546875,0.949188232421875,0.2069854736328125
1718308929507392000,48.42839208984375,-0.035491943359375,0.969757080078125,0.2408294677734375
1718308929557162800,48.47816284179687,-0.000579833984375,0.9469146728515625,0.21533203125
1718308929606933000,48.52793310546875,0.01593017578125,0.9944610595703125,0.188385009765625
1718308929656702700,48.57770263671875,-0.0107269287109375,1.0048675537109375,0.19940185546875
1718308929706472400,48.62747241210938,-0.0324249267578125,0.97113037109375,0.286651611328125
1718308929756242400,48.67724243164062,-0.0495147705078125,0.960357666015625,0.2518310546875
1718308929806012400,48.72701245117187,-0.0113983154296875,0.981292724609375,0.194305419921875
1718308929855782400,48.776782470703125,0.0368804931640625,0.947174072265625,0.2162017822265625
1718308929905552400,48.82655249023438,0.0608673095703125,0.9510955810546875,0.217742919921875
1718308929955323400,48.876323486328126,0.097137451171875,0.9665679931640625,0.2045440673828125
1718308930005093600,48.92609375,0.0346832275390625,0.944610595703125,0.190643310546875
1718308930054863400,48.97586328125,0.0436248779296875,1.014739990234375,0.1598052978515625
1718308930104633600,49.025633544921874,0.0411529541015625,0.9714202880859375,0.2638397216796875
1718308930154403300,49.0754033203125,-0.0258941650390625,1.00262451171875,0.295928955078125
1718308930204173600,49.12517358398438,-0.0216827392578125,0.9522247314453125,0.2257843017578125
1718308930253943600,49.17494360351562,-0.0343475341796875,0.961395263671875,0.173797607421875
1718308930303713500,49.224713623046874,-0.068695068359375,1.0237579345703125,0.202362060546875
1718308930353483500,49.2744833984375,-0.041717529296875,0.91143798828125,0.2224273681640625
1718308930403254500,49.324254638671874,0.00506591796875,1.0131988525390625,0.1499481201171875
1718308930453024500,49.3740244140625,0.028045654296875,0.972686767578125,0.1580352783203125
1718308930502794500,49.42379443359375,0.0247650146484375,0.973968505859375,0.2233734130859375
1718308930552564500,49.473564453125,-0.0301513671875,0.9515380859375,0.2578125
1718308930602334500,49.52333447265625,-0.0234375,0.9975738525390625,0.2212066650390625
1718308930652104400,49.5731044921875,0.01739501953125,0.93341064453125,0.1836700439453125
1718308930701874400,49.62287451171875,0.014068603515625,0.977874755859375,0.205841064453125
1718308930751644700,49.67264477539062,-0.0012969970703125,0.971588134765625,0.2279205322265625
1718308930801414400,49.72241430664062,0.0060577392578125,0.98992919921875,0.220245361328125
1718308930851185700,49.772185546875,0.021240234375,0.9677276611328125,0.2487335205078125
1718308930900955600,49.82195556640625,-0.0107879638671875,0.9763946533203125,0.2477264404296875
1718308930950725600,49.8717255859375,-0.0397186279296875,0.967254638671875,0.2497711181640625
1718308931000495600,49.92149560546875,-0.0197296142578125,0.9045257568359375,0.261444091796875
1718308931050265600,49.971265625,0.013427734375,0.994964599609375,0.1735076904296875
1718308931100035600,50.02103564453125,0.0904388427734375,0.99176025390625,0.1897430419921875
1718308931149805600,50.0708056640625,0.0808563232421875,0.9519195556640625,0.1641998291015625
1718308931199575600,50.12057543945313,0.118499755859375,0.9564971923828125,0.1881866455078125
1718308931249345500,50.17034545898437,0.10455322265625,1.0081329345703125,0.21612548828125
1718308931299116500,50.22011645507813,0.024932861328125,1.0418548583984375,0.221160888671875
1718308931348886500,50.26988647460937,-0.078369140625,0.923553466796875,0.2236175537109375
1718308931398656500,50.319656494140624,-0.084564208984375,1.005126953125,0.1781005859375
1718308931448426500,50.369426513671876,-0.0270843505859375,0.937835693359375,0.196533203125
1718308931498196500,50.41919653320313,0.0491485595703125,0.98602294921875,0.175262451171875
1718308931547966700,50.468966796875,0.0551910400390625,0.9934234619140625,0.141815185546875
1718308931597736700,50.51873681640625,0.00714111328125,0.9823455810546875,0.1692047119140625
1718308931647506700,50.568506591796876,-0.0730743408203125,0.991058349609375,0.3305816650390625
1718308931697276400,50.6182763671875,-0.0311431884765625,0.9083251953125,0.21160888671875
1718308931747046400,50.66804638671875,-0.0548553466796875,0.9857635498046875,0.1952362060546875
1718308931796817400,50.7178173828125,-0.0466156005859375,0.9838714599609375,0.27490234375
1718308931846587400,50.76758740234375,-0.0576324462890625,0.9609832763671875,0.2269287109375
1718308931896357400,50.817357421875,-0.014007568359375,0.9808807373046875,0.2130889892578125
1718308931946127400,50.86712744140625,0.0318756103515625,1.002288818359375,0.208526611328125
1718308931995897300,50.9168974609375,-0.0313720703125,0.9828948974609375,0.231781005859375
1718308932045667300,50.96666723632813,-0.0664825439453125,0.96746826171875,0.2281646728515625
1718308932095437300,51.01643725585937,-0.05047607421875,0.9687042236328125,0.2160186767578125
1718308932145207300,51.066207275390624,0.0096282958984375,0.9602813720703125,0.228790283203125
1718308932194977300,51.115977294921876,0.06451416015625,0.9810638427734375,0.1688995361328125
1718308932244747500,51.16574755859375,0.1181793212890625,0.912933349609375,0.1378326416015625
1718308932294517200,51.21551733398437,0.1461334228515625,1.024017333984375,0.154083251953125
1718308932344287500,51.26528759765625,0.0823974609375,0.968170166015625,0.233154296875
1718308932394058500,51.31505859375,0.0354766845703125,0.982330322265625,0.282958984375
1718308932443828200,51.364828125,-0.0277099609375,0.970977783203125,0.1875152587890625
1718308932493598500,51.41459838867188,-0.06195068359375,1.02374267578125,0.164581298828125
1718308932543368400,51.46436840820313,-0.059906005859375,0.9588165283203125,0.1757354736328125
1718308932593138400,51.51413842773437,-0.0226287841796875,0.9412689208984375,0.2731170654296875
1718308932642908400,51.563908447265625,0.0576019287109375,0.988006591796875,0.1899566650390625
1718308932692678400,51.61367846679688,0.0649566650390625,0.991302490234375,0.1630706787109375
1718308932742449200,51.66344921875,-0.0507965087890625,0.958404541015625,0.1825103759765625
1718308932792219000,51.713218994140625,-0.1075897216796875,0.964874267578125,0.3310089111328125
1718308932841989000,51.76298901367188,-0.024566650390625,0.93341064453125,0.2124786376953125
1718308932891758800,51.8127587890625,0.0097503662109375,0.97137451171875,0.1704864501953125
1718308932941529000,51.862529052734374,0.037689208984375,0.9942169189453125,0.1780242919921875
1718308932991298800,51.912298828125,0.018341064453125,0.97430419921875,0.199981689453125
1718308933041069000,51.96206909179688,0.0374603271484375,1.0018157958984375,0.21539306640625
1718308933090838800,52.0118388671875,0.0702972412109375,0.9768829345703125,0.234649658203125
1718308933140610000,52.06161010742188,-0.0084686279296875,0.9814605712890625,0.2320404052734375
1718308933190380000,52.11138012695312,-0.0439605712890625,0.96783447265625,0.21270751953125
1718308933240150000,52.16114990234375,-0.02301025390625,0.9702301025390625,0.1857147216796875
1718308933289920000,52.210919921875,0.000885009765625,0.9553375244140625,0.178558349609375
1718308933339690000,52.26068994140625,-0.005096435546875,0.9528350830078125,0.14337158203125
1718308933389460000,52.3104599609375,0.111328125,0.9438018798828125,0.113311767578125
1718308933439230000,52.36022998046875,0.1252899169921875,1.045562744140625,0.198394775390625
1718308933489000200,52.410000244140626,0.143646240234375,0.962066650390625,0.283111572265625
1718308933538770000,52.45977001953125,0.066009521484375,0.967071533203125,0.278472900390625
1718308933588540200,52.5095400390625,-0.0077667236328125,0.97235107421875,0.181671142578125
1718308933638310000,52.55930981445312,-0.0099029541015625,1.0225982666015625,0.105987548828125
1718308933688080100,52.609080078125,-0.063568115234375,0.9702911376953125,0.228607177734375
1718308933737849600,52.658849609375,-0.073394775390625,0.97772216796875,0.26708984375
1718308933787619600,52.70861962890625,-0.018402099609375,0.96075439453125,0.2301177978515625
1718308933837389800,52.75838989257812,0.0480804443359375,0.9889373779296875,0.1527099609375
1718308933887159600,52.80815966796875,0.0218353271484375,0.977630615234375,0.1824188232421875
1718308933936929800,52.8579296875,-0.02294921875,0.9369964599609375,0.2368927001953125
1718308933986699500,52.907699462890626,-0.0162200927734375,0.9616546630859375,0.150054931640625
1718308934036469800,52.9574697265625,0.074005126953125,0.9903106689453125,0.175567626953125
1718308934086239500,53.00723950195312,0.0340118408203125,0.9719696044921875,0.2279052734375
1718308934136009700,53.057009765625,-0.0235443115234375,0.9861907958984375,0.22308349609375
1718308934185779500,53.10677954101563,0.0033416748046875,0.97564697265625,0.2024688720703125
1718308934235550700,53.15655078125,0.0284423828125,0.997802734375,0.200653076171875
1718308934285320400,53.20632055664063,-0.0025787353515625,0.9750823974609375,0.20166015625
1718308934335090700,53.25609057617187,0.001220703125,0.975311279296875,0.21820068359375
1718308934384860400,53.3058603515625,-0.011077880859375,0.9610137939453125,0.196502685546875
1718308934434630700,53.355630615234375,-0.0279388427734375,0.9705047607421875,0.193695068359375
1718308934484400400,53.405400390625,0.0099029541015625,0.9768524169921875,0.2216644287109375
1718308934534170600,53.45517065429687,0.009429931640625,0.945556640625,0.202911376953125
1718308934583940600,53.50494067382812,0.0907745361328125,0.9571533203125,0.16461181640625
1718308934633710600,53.554710693359375,0.0969085693359375,1.0078277587890625,0.170196533203125
1718308934683480600,53.60448046875,0.0502471923828125,0.97845458984375,0.24517822265625
1718308934733251000,53.6542509765625,0.0253753662109375,0.9904632568359375,0.2758331298828125
1718308934783021300,53.704021240234376,0.0127105712890625,0.9359893798828125,0.1893310546875
1718308934832791000,53.753791015625,-0.0221710205078125,1.0158538818359375,0.15838623046875
1718308934882561300,53.80356127929687,-0.0325164794921875,0.9649658203125,0.193145751953125
1718308934932331000,53.8533310546875,0.00335693359375,0.944183349609375,0.2080230712890625
1718308934982101200,53.903101318359376,0.0613555908203125,1.014617919921875,0.1880950927734375
1718308935031871000,53.95287109375,0.036163330078125,0.9565277099609375,0.2279815673828125
1718308935081641200,54.00264111328125,-0.0193328857421875,0.97723388671875,0.2580413818359375
1718308935131411200,54.0524111328125,-0.0108795166015625,0.91717529296875,0.20501708984375
1718308935181181200,54.10218115234375,-0.0341949462890625,0.9597015380859375,0.1650390625
1718308935230951200,54.151951171875,-0.0081329345703125,0.987762451171875,0.1951751708984375
1718308935280721200,54.20172119140625,0.0038604736328125,0.9893646240234375,0.2822113037109375
1718308935330491100,54.2514912109375,-0.0288848876953125,0.9973297119140625,0.2970428466796875
1718308935380261000,54.30126123046875,0.0014190673828125,0.964202880859375,0.218841552734375
1718308935430031000,54.351031005859376,0.02325439453125,0.9639129638671875,0.1776885986328125
1718308935479801000,54.40080102539063,-0.0236968994140625,1.0066375732421875,0.217864990234375
1718308935529571000,54.45057104492187,-0.023345947265625,0.957275390625,0.2620849609375
1718308935579341000,54.500341064453124,0.0310211181640625,0.9430999755859375,0.222381591796875
1718308935629111000,54.550111083984376,0.0885772705078125,0.969970703125,0.169219970703125
1718308935678881300,54.59988134765625,0.0861968994140625,1.0467376708984375,0.2000885009765625
1718308935728651300,54.6496513671875,0.07293701171875,0.8962554931640625,0.147003173828125
1718308935778421200,54.699421142578124,0.0272674560546875,0.9293212890625,0.1696929931640625
1718308935828191200,54.749191162109376,0.111968994140625,1.0278778076171875,0.234466552734375
1718308935877961200,54.79896118164063,0.0601654052734375,1.0289764404296875,0.2691497802734375
1718308935927731200,54.84873120117187,-0.0424652099609375,0.95849609375,0.235076904296875
1718308935977501200,54.898501220703125,-0.060302734375,0.96356201171875,0.144378662109375
1718308936027271200,54.94827124023438,0.0233154296875,0.9914398193359375,0.1619110107421875
1718308936077041200,54.99804125976563,0.041259765625,1.00048828125,0.2110748291015625
1718308936126811400,55.04781127929687,0.069915771484375,0.9979400634765625,0.22235107421875
1718308936176581000,55.0975810546875,0.074859619140625,0.960906982421875,0.2052764892578125
1718308936226351400,55.14735131835938,-0.0013427734375,0.951019287109375,0.2113189697265625
1718308936276120000,55.1971201171875,-0.017913818359375,0.986175537109375,0.2047119140625
1718308936325890300,55.24689038085938,-0.020751953125,0.930572509765625,0.226959228515625
1718308936375660300,55.29666040039063,-0.017974853515625,0.9752960205078125,0.2518310546875
1718308936425430300,55.34643017578125,0.0111541748046875,0.97772216796875,0.185333251953125
1718308936475200300,55.3962001953125,0.05462646484375,0.9851531982421875,0.1709747314453125
1718308936524970200,55.44597021484375,0.0724334716796875,1.00482177734375,0.2355804443359375
1718308936574740200,55.495740234375,0.0148468017578125,0.9603271484375,0.2432708740234375
1718308936624510200,55.54551025390625,-0.0046539306640625,0.9705810546875,0.2320098876953125
1718308936674280200,55.5952802734375,-0.018463134765625,0.979248046875,0.2187957763671875
1718308936724049700,55.64504956054687,-0.0051422119140625,0.926513671875,0.21240234375
1718308936773819600,55.694819580078125,0.0216827392578125,0.9592742919921875,0.170562744140625
1718308936823589600,55.74458959960938,0.09136962890625,0.9769287109375,0.1740570068359375
1718308936873359600,55.79435961914062,0.1425628662109375,0.966888427734375,0.2028045654296875
1718308936923129600,55.84412963867187,0.10040283203125,1.04583740234375,0.1944122314453125
1718308936972899600,55.893899658203125,0.008544921875,0.9605255126953125,0.1971588134765625
1718308937022669600,55.94366967773438,0.0087432861328125,0.9456787109375,0.140960693359375
1718308937072439600,55.993439453125,0.036468505859375,1.01934814453125,0.203582763671875
1718308937122209500,56.04320947265625,-0.01300048828125,0.96966552734375,0.2647247314453125
1718308937171979800,56.092979736328125,0.030487060546875,0.95892333984375,0.1634368896484375
1718308937221749500,56.14274951171875,0.006683349609375,1.015716552734375,0.1532440185546875
1718308937271519700,56.19251977539062,-0.0396728515625,0.9135894775390625,0.164886474609375
1718308937321289500,56.24228955078125,0.0319366455078125,1.0332794189453125,0.1408538818359375
1718308937371059700,56.292059814453125,0.0553436279296875,0.9816436767578125,0.2178192138671875
1718308937420829400,56.341829345703125,-0.03106689453125,0.9529876708984375,0.2007904052734375
1718308937470598700,56.3915986328125,-0.029327392578125,0.964935302734375,0.1725006103515625
1718308937520368600,56.44136865234375,0.018341064453125,0.973419189453125,0.19451904296875
1718308937570138600,56.491138671875,0.0557403564453125,0.9623870849609375,0.17791748046875
1718308937619908600,56.54090869140625,0.0885009765625,1.0147552490234375,0.1537017822265625
1718308937669678600,56.5906787109375,0.063690185546875,1.0398712158203125,0.202880859375
1718308937719449000,56.64044897460938,-0.0316162109375,0.958160400390625,0.2500457763671875
1718308937769218800,56.69021875,-0.0422210693359375,0.992340087890625,0.2864227294921875
1718308937818989000,56.739989013671874,0.00982666015625,0.9327850341796875,0.2300872802734375
1718308937868759000,56.789759033203126,-0.0342254638671875,0.9882354736328125,0.181915283203125
1718308937918529000,56.83952905273438,-0.1504364013671875,0.9108123779296875,0.19622802734375
1718308937968299000,56.88929907226562,-0.0747528076171875,0.98614501953125,0.1808319091796875
1718308938018069000,56.939069091796874,-0.060272216796875,0.924072265625,0.156341552734375
1718308938067839000,56.9888388671875,-0.0841217041015625,0.921417236328125,0.0514068603515625
1718308938117609000,57.03860888671875,-0.0175933837890625,0.9983978271484375,0.029815673828125
1718308938167378000,57.0883779296875,0.02423095703125,1.12664794921875,-0.008880615234375
1718308938217148200,57.13814819335938,0.1966705322265625,1.0683441162109375,0.160186767578125
1718308938266918000,57.18791796875,-0.07769775390625,0.9249114990234375,-0.0676422119140625
1718308938316688100,57.237688232421874,0.0504150390625,1.0193023681640625,-0.18182373046875
1718308938366457900,57.287457763671874,0.1877593994140625,1.038543701171875,0.037506103515625
1718308938416228000,57.33722802734375,0.3974761962890625,1.1583404541015625,0.2754058837890625
1718308938465997800,57.38699780273438,0.0932769775390625,0.9722442626953125,0.3106689453125
1718308938515768000,57.43676806640625,-0.0608367919921875,1.1321258544921875,0.0527801513671875
1718308938565538000,57.4865380859375,-0.036712646484375,1.330535888671875,0.2336883544921875
1718308938615308000,57.53630810546875,-0.1973419189453125,0.8046112060546875,0.9154205322265625
1718308938665078000,57.586078125,-0.2438812255859375,0.5053558349609375,-0.286865234375
1718308938714847000,57.635846923828126,-0.032958984375,0.5621490478515625,0.2947998046875
1718308938764617000,57.68561694335938,-0.1381072998046875,0.4145965576171875,0.1543426513671875
1718308938814387000,57.73538696289062,0.1428070068359375,1.472930908203125,0.5825347900390625
1718308938864157000,57.785156982421874,0.793487548828125,1.3374176025390625,0.92022705078125
1718308938913927000,57.834927001953126,-0.3496551513671875,0.2201995849609375,-0.0259246826171875
1718308938963697000,57.88469677734375,0.244049072265625,1.4581146240234375,-0.0016937255859375
1718308939013467000,57.934466796875,0.225067138671875,1.0507659912109375,0.0116119384765625
1718308939063236900,57.98423681640625,-0.1163482666015625,0.8336334228515625,0.236663818359375
1718308939113006800,58.0340068359375,0.009674072265625,0.8972930908203125,0.4058074951171875
1718308939162776000,58.083776123046874,0.1907806396484375,1.092254638671875,0.2427215576171875
1718308939212545800,58.1335458984375,0.2298126220703125,0.93157958984375,0.16192626953125
1718308939262316000,58.18331591796875,-0.0712432861328125,0.8965606689453125,0.0463714599609375
1718308939312085800,58.23308569335938,-0.140472412109375,1.015777587890625,0.2826690673828125
1718308939361856000,58.28285595703125,0.118988037109375,0.9621124267578125,0.3106231689453125
1718308939411626000,58.3326259765625,0.07415771484375,0.975921630859375,0.214691162109375
1718308939461396000,58.38239599609375,-0.0033721923828125,1.005035400390625,0.173004150390625
1718308939511166000,58.432166015625,-0.00616455078125,0.9884185791015625,0.23797607421875
1718308939560936000,58.48193603515625,-0.02850341796875,0.9941253662109375,0.2393951416015625
1718308939610705000,58.53170483398438,-0.013763427734375,0.947998046875,0.2203521728515625
1718308939660475000,58.58147485351562,-0.012451171875,0.9889068603515625,0.2141571044921875
1718308939710244900,58.631244873046874,-0.0009613037109375,0.963470458984375,0.23358154296875
1718308939760015000,58.68101513671875,0.1746826171875,1.0242462158203125,0.1999664306640625
1718308939809784800,58.73078491210938,0.1165771484375,0.919708251953125,0.2565460205078125
1718308939859555000,58.78055517578125,-0.053466796875,0.895660400390625,0.1416168212890625
1718308939909324800,58.83032470703125,0.067047119140625,0.927886962890625,0.187652587890625
1718308939959094000,58.88009399414062,0.1806488037109375,1.008575439453125,0.17938232421875
1718308940008864000,58.929864013671875,0.04010009765625,0.92376708984375,0.2229461669921875
1718308940058634000,58.979634033203126,-0.00177001953125,1.0135345458984375,0.271759033203125
1718308940108404000,59.02940405273438,0.0338134765625,0.9932403564453125,0.3034210205078125
1718308940158174000,59.07917407226562,-1.135833740234375,0.8963623046875,0.21405029296875
1718308940207944000,59.12894384765625,0.129974365234375,0.9900360107421875,0.1968841552734375
1718308940257714000,59.1787138671875,-0.0706787109375,1.05078125,0.155487060546875
1718308940307483000,59.22848291015625,-0.0010833740234375,0.923004150390625,0.2723236083984375
1718308940357253000,59.278253173828126,0.094390869140625,0.96551513671875,0.192138671875
1718308940407022800,59.32802294921875,0.096832275390625,0.9512176513671875,0.2001800537109375
1718308940456793000,59.37779296875,0.03564453125,0.9835968017578125,0.14398193359375
1718308940506563000,59.42756298828125,0.01739501953125,0.9158477783203125,0.248748779296875
1718308940556333000,59.4773330078125,0.10101318359375,0.9471435546875,0.181884765625
1718308940606103000,59.52710302734375,0.0652618408203125,1.0477447509765625,0.1739044189453125
1718308940655871700,59.576871826171875,0.0580902099609375,0.9744110107421875,0.2801513671875
1718308940705642000,59.62664208984375,0.0025634765625,0.9562530517578125,0.1699981689453125
1718308940755412000,59.67641186523438,0.035430908203125,0.9769134521484375,0.182464599609375
1718308940805182000,59.72618188476562,-0.0215911865234375,1.0121002197265625,0.27276611328125
1718308940854952200,59.7759521484375,-0.0784912109375,0.9757080078125,0.3303985595703125
1718308940904721000,59.82572094726562,-0.0313720703125,0.9435882568359375,0.2813262939453125
1718308940954491000,59.875490966796875,0.014678955078125,0.977874755859375,0.17486572265625
1718308941004261000,59.92526123046875,0.0977020263671875,0.97344970703125,0.112030029296875
1718308941054030800,59.97503076171875,0.155120849609375,0.9943389892578125,0.170501708984375
1718308941103801000,60.02480102539062,0.0485687255859375,0.9449615478515625,0.246490478515625
1718308941153570800,60.07457080078125,0.060577392578125,0.93994140625,0.194580078125
1718308941203340000,60.12434008789062,0.0733642578125,0.9573211669921875,0.1757965087890625
1718308941253110000,60.174110107421875,0.0326385498046875,0.9835968017578125,0.23333740234375
1718308941302880000,60.2238798828125,0.00860595703125,0.97900390625,0.2226409912109375
1718308941352650000,60.27364990234375,0.01953125,0.9962005615234375,0.2097625732421875
1718308941402420000,60.323419921875,-0.03271484375,0.995208740234375,0.1905670166015625
1718308941452190000,60.37318994140625,-0.0464019775390625,0.9966278076171875,0.305816650390625
1718308941501959200,60.42295922851562,-0.089813232421875,0.9567413330078125,0.284454345703125
1718308941551729000,60.47272900390625,-0.081146240234375,0.961761474609375,0.1602325439453125
1718308941601499100,60.5224990234375,0.128326416015625,0.9998931884765625,0.148956298828125
1718308941651268900,60.57226879882813,0.176422119140625,0.9703521728515625,0.1640472412109375
1718308941701039000,60.6220390625,0.08428955078125,0.985870361328125,0.250762939453125
1718308941750807600,60.6718076171875,-0.032989501953125,0.90179443359375,0.231170654296875
1718308941800577500,60.72157763671875,0.0298309326171875,0.9476318359375,0.16107177734375
1718308941850347500,60.77134741210938,0.0341796875,1.00506591796875,0.14178466796875
1718308941900117800,60.82111767578125,-0.011199951171875,0.940765380859375,0.300994873046875
1718308941949887500,60.870887451171875,-0.050018310546875,0.988525390625,0.28399658203125
1718308941999656700,60.92065673828125,-0.0237884521484375,1.002532958984375,0.198577880859375
1718308942049426400,60.970426513671875,-0.0494384765625,1.016815185546875,0.202545166015625
1718308942099196700,61.02019677734375,-0.052520751953125,0.9621429443359375,0.2295074462890625
1718308942148966700,61.06996655273438,-0.0561370849609375,0.9703216552734375,0.2551727294921875
1718308942198736600,61.11973657226562,-0.02642822265625,0.9727630615234375,0.2311859130859375
1718308942248505600,61.16950561523438,0.01593017578125,0.9740142822265625,0.2092742919921875
1718308942298275600,61.21927563476562,0.079010009765625,0.9947509765625,0.2006378173828125
1718308942348045600,61.269045654296875,0.097015380859375,0.935821533203125,0.277862548828125
1718308942397815800,61.31881591796875,0.0357513427734375,0.99609375,0.2525177001953125
1718308942447584500,61.36858447265625,0.1353607177734375,0.842559814453125,0.1363067626953125
1718308942497354500,61.4183544921875,0.1895599365234375,1.08245849609375,0.134185791015625
1718308942547124700,61.46812475585938,0.018035888671875,1.0371551513671875,0.2199859619140625
1718308942596894500,61.51789453125,-0.0233154296875,0.8172149658203125,0.297698974609375
1718308942646664700,61.567664794921875,0.148834228515625,1.106781005859375,0.122222900390625
1718308942696433700,61.61743359375,0.061737060546875,1.03497314453125,0.1956787109375
1718308942746203600,61.66720361328125,-0.0828857421875,0.9393463134765625,0.2711944580078125
1718308942795973600,61.7169736328125,-0.0988311767578125,0.9188232421875,0.269317626953125
1718308942845743600,61.76674365234375,0.0083160400390625,0.987396240234375,0.2346343994140625
1718308942895512600,61.8165126953125,0.1932830810546875,0.9996185302734375,0.1494293212890625
1718308942945282800,61.86628271484375,0.149139404296875,1.0228271484375,0.22686767578125
1718308942995052500,61.91605249023438,-0.0115509033203125,0.887481689453125,0.3314361572265625
1718308943044822800,61.96582275390625,0.0017242431640625,0.9376983642578125,0.190277099609375
1718308943094591700,62.015591796875,0.1165618896484375,1.0124359130859375,0.0857696533203125
1718308943144361500,62.06536157226562,0.0240325927734375,1.015625,0.1452178955078125
1718308943194131700,62.115131591796874,-0.0437164306640625,0.9360198974609375,0.2691497802734375
1718308943243901400,62.1649013671875,-0.092315673828125,0.95086669921875,0.22552490234375
1718308943293670700,62.214670654296874,-0.0764923095703125,1.0000762939453125,0.2350311279296875
1718308943343440600,62.264440673828126,-0.0780029296875,0.992767333984375,0.260101318359375
1718308943393210600,62.31421069335938,-0.0539703369140625,0.985198974609375,0.26483154296875
1718308943442980600,62.36398071289062,-0.0466156005859375,0.9608001708984375,0.2411956787109375
1718308943492749600,62.41374951171875,-0.0672149658203125,1.023162841796875,0.2004852294921875
1718308943542519600,62.46351953125,-0.038543701171875,0.947479248046875,0.2085113525390625
1718308943592289800,62.513289794921874,-0.0154876708984375,0.98846435546875,0.2501373291015625
1718308943642059500,62.5630595703125,0.10205078125,0.9407196044921875,0.1724395751953125
1718308943691828500,62.61282836914062,0.1470947265625,0.9839324951171875,0.10479736328125
1718308943741598700,62.6625986328125,0.114532470703125,0.9672088623046875,0.249176025390625
1718308943791368700,62.71236865234375,0.0094757080078125,0.8765869140625,0.3336944580078125
1718308943841137700,62.7621376953125,0.1190338134765625,0.9797515869140625,0.2273406982421875
1718308943890907600,62.81190771484375,0.18695068359375,0.99932861328125,0.119293212890625
1718308943940677600,62.861677734375,0.14862060546875,0.9809722900390625,0.1714324951171875
1718308943990447900,62.91144775390625,-0.053741455078125,0.97064208984375,0.2959747314453125
1718308944040216600,62.96121655273438,-0.1634979248046875,0.9315643310546875,0.307159423828125
1718308944089986600,63.01098657226562,-0.1331329345703125,0.9954681396484375,0.2165985107421875
1718308944139756800,63.0607568359375,-0.02154541015625,0.975311279296875,0.2056732177734375
1718308944189525500,63.110525390625,0.05047607421875,0.96099853515625,0.205963134765625
1718308944239295700,63.160295654296874,0.073272705078125,0.9892425537109375,0.2108917236328125
1718308944289065500,63.2100654296875,0.144622802734375,1.0111083984375,0.2047271728515625
1718308944338835700,63.25983569335938,0.12799072265625,0.9574737548828125,0.206878662109375
1718308944388604700,63.309604736328126,0.0539093017578125,0.9901275634765625,0.1851348876953125
1718308944438374700,63.35937475585938,0.026641845703125,0.9073944091796875,0.251129150390625
1718308944488144600,63.40914453125,0.00518798828125,0.9258575439453125,0.214263916015625
1718308944537913600,63.45891357421875,0.0224151611328125,0.9906005859375,0.1115875244140625
1718308944587683600,63.50868359375,-0.0158538818359375,0.969696044921875,0.2303619384765625
1718308944637453600,63.55845361328125,-0.0442962646484375,0.966644287109375,0.31988525390625
1718308944687222800,63.60822290039062,-0.1163330078125,0.982208251953125,0.2900390625
1718308944736992500,63.65799243164062,-0.054779052734375,0.998931884765625,0.209259033203125
1718308944786762500,63.707762451171874,-0.0258331298828125,0.97772216796875,0.2214508056640625
1718308944836532500,63.757532470703126,-0.0581512451171875,0.9935150146484375,0.2333831787109375
1718308944886301400,63.807301513671874,-0.0653533935546875,0.9602203369140625,0.232452392578125
1718308944936071700,63.85707177734375,-0.041046142578125,0.99444580078125,0.20672607421875
1718308944985841400,63.90684130859375,-0.02899169921875,0.9585723876953125,0.219512939453125
1718308945035610400,63.9566103515625,0.084625244140625,0.920074462890625,0.238128662109375
1718308945085380600,64.00638061523438,0.1689605712890625,0.8905029296875,0.1711578369140625
1718308945135150300,64.056150390625,0.2696685791015625,1.04296875,0.0376129150390625
1718308945184919600,64.10591943359375,0.168426513671875,0.9584197998046875,0.1795654296875
1718308945234689500,64.155689453125,0.15411376953125,0.9654083251953125,0.2624969482421875
1718308945284459500,64.20545947265624,0.1044158935546875,1.020477294921875,0.233306884765625
1718308945334228500,64.255228515625,-0.0613861083984375,0.9897003173828125,0.2872161865234375
1718308945383998700,64.30499877929688,-0.1106109619140625,0.971710205078125,0.264068603515625
1718308945433768400,64.3547685546875,-0.2096710205078125,0.9781036376953125,0.3013763427734375
1718308945483537400,64.40453735351562,-0.0995635986328125,0.8699493408203125,0.2833709716796875
1718308945533307600,64.4543076171875,0.118988037109375,1.07086181640625,0.1628265380859375
1718308945583076400,64.50407641601562,0.202850341796875,0.9991302490234375,0.140350341796875
1718308945632846600,64.5538466796875,0.115264892578125,0.9354400634765625,0.1387176513671875
