time,seconds_elapsed,z,y,x
1718308881161471500,0.082471435546875,0.1505401055574417,-0.13302023095786572,-0.034976858297083524
1718308881211242500,0.132242431640625,0.5438017567634582,-0.006922200478613376,0.27288895783731715
1718308881261014500,0.1820146484375,0.35955168930590153,0.14243395599126815,0.29613950330968947
1718308881310786300,0.231786376953125,0.02135258463025093,-0.07536766793429851,0.024859250177489592
1718308881360557300,0.281557373046875,-0.12589958529770373,0.06503390544652939,0.19394045400787144
1718308881410329300,0.331329345703125,0.20975918724536893,-0.11339636981636285,-0.02733278241786174
1718308881460100400,0.381100341796875,0.19611703086197374,-0.13377864810973406,-0.15196380908447316
1718308881509872400,0.430872314453125,-0.149825235286355,0.08575579095780848,0.009324877706170081
1718308881559643400,0.480643310546875,0.11975918284654617,0.11121318055838346,0.04359100305116735
1718308881609415200,0.530415283203125,0.1377729784429073,-0.12155015791654586,-0.10312840257380157
1718308881659186200,0.580186279296875,0.19356091663837433,-0.10150427197068929,-0.06903680267864838
1718308881708958200,0.629958251953125,0.15853753405213356,0.04290098409354687,0.08453670662478543
1718308881758729200,0.679729248046875,-0.2626759539186954,-0.027589140932261943,-0.015765276884054765
1718308881808501000,0.7295009765625,0.062297173959016794,0.05895604683756828,0.09211148012746125
1718308881858272000,0.77927197265625,0.21594401336014268,0.023644202698767183,0.07270920758107677
1718308881908044000,0.8290439453125,0.5209703317523002,-0.12411971614360809,-0.2633112196149304
1718308881957815300,0.878815185546875,0.29822131455242634,0.277096985720098,-0.5091549889372662
1718308882007587000,0.928587158203125,0.6292366452038288,0.04393807205632329,0.29742512267343696
1718308882057358000,0.978358154296875,-0.9821230314016342,0.7078323352739214,-0.09383476025611162
1718308882107130000,1.028130126953125,-2.777044793200493,-1.0022887443348765,-2.983811228370666
1718308882156901000,1.077901123046875,2.3281436723589897,-0.2676747851192951,-1.7746195630043744
1718308882206673200,1.127673095703125,-1.971190182852745,2.4652982266426084,1.5203548790782688
1718308882256444200,1.177444091796875,1.3875871615767479,1.0726350769758224,0.4129863423734903
1718308882306216000,1.2272158203125,1.1127122358202934,-1.0864242406144737,-0.5029620891138911
1718308882355987000,1.276987060546875,1.6189508623868225,0.11573241154849528,-0.6744697985719889
1718308882405759000,1.326759033203125,0.2525789227962494,0.5835255721256136,-1.9242941377736626
1718308882455530200,1.3765302734375,2.0270698909848925,-0.07300064654201269,1.409793440426886
1718308882505301000,1.426301025390625,-1.6640192536473273,0.01942629274278879,-0.432285063213855
1718308882555073000,1.476072998046875,-0.21154899327158927,0.44702977401167154,1.3448469210028648
1718308882604844000,1.525843994140625,-1.1655337254256009,-0.319581790228188,0.37292204301059245
1718308882654616000,1.575615966796875,-1.2543646860450506,0.08273731991946696,1.2936901497393847
1718308882704387000,1.625386962890625,-0.0699830522865057,-0.5545812171921134,0.00783610045313835
1718308882754159000,1.6751591796875,-0.11916589312851428,-0.12579027970433235,0.7305106155499815
1718308882803930000,1.72493017578125,0.09174480223953724,-0.0936827845647931,-0.1802628975175321
1718308882853702100,1.7747021484375,-0.15585750118792055,0.13850129271745681,0.17310513471737504
1718308882903473200,1.82447314453125,-0.738870739877224,0.09831278245300054,-0.19966946264654398
1718308882953245200,1.8742451171875,0.3320107714295387,-0.10269055914580821,0.3651465867035091
1718308883003016000,1.924015869140625,-0.2932838581502437,-0.2820715592622757,-0.11122983943223953
1718308883052788000,1.9737880859375,0.12213175719678401,-0.31481121482551094,0.23298019609600304
1718308883102559000,2.02355908203125,0.179680275323987,-0.25967589531987906,-0.23073782399669288
1718308883152331000,2.0733310546875,0.14584697930514812,-0.06361907021254301,0.3902656842604279
1718308883202102300,2.123102294921875,-0.4179471796512603,0.21463819145858287,0.3467566512711346
1718308883251873000,2.172873046875,-0.3604875088512897,0.23302023584544657,0.6136465696230531
1718308883301645000,2.22264501953125,-0.38933892480432986,-0.10071195254921912,0.16132482668310402
1718308883351416000,2.272416015625,-0.15205518629550932,-0.19393530290871858,-0.7646122071161866
1718308883401188000,2.32218798828125,2.0283166761755944,0.23835078321844339,-0.17640519917607306
1718308883450959000,2.371958984375,0.7987626062601805,0.43004663663730025,-1.4486546476103364
1718308883500731000,2.42173095703125,1.7018009950309991,0.08572174255773425,-0.9261265650220215
1718308883550502100,2.471502197265625,1.642889371857047,-0.12989493854418396,-0.41722690255269407
1718308883600274200,2.521274169921875,0.6392442444771528,0.9791419697642326,-0.6395286143764853
1718308883650045000,2.571044921875,-0.2360205867052078,0.27246008316706866,-0.05140168593525886
1718308883699815700,2.620815673828125,-0.45231122154593467,0.3267453251820057,0.10751198795288801
1718308883749587700,2.670587646484375,-0.531595770663023,0.28945845464318987,-0.58038990444839
1718308883799358700,2.720358642578125,-0.4641372684180736,0.2570645437777042,0.20988018327653407
1718308883849130800,2.770130859375,0.08670563902854919,-0.01153707386292517,-0.5177224358722567
1718308883898902000,2.819902099609375,1.0200082331597804,0.4544948491953313,0.33077713798135516
1718308883948674000,2.869674072265625,2.411104279640317,0.11316234186477958,-0.9728405315324663
1718308883998444800,2.91944482421875,4.471375013959408,0.6578670388173311,0.3823366448268294
1718308884048216800,2.969216796875,2.6556793442010878,1.5628884911641479,0.16885259183943271
1718308884097987800,3.01898779296875,5.906233045276999,3.2774986988857386,3.2372406305164096
1718308884147758800,3.0687587890625,1.06366909570992,4.109126048393548,-0.4046171579569578
1718308884197530600,3.118530517578125,-3.1226798930957913,3.2187554180160163,-1.5689333242863415
1718308884247302000,3.168302001953125,-4.569505717843771,0.5418225656449794,-5.840478424340486
1718308884297074000,3.218073974609375,-3.3673288996756074,-3.015451690520346,-7.64165690844655
1718308884346845000,3.267844970703125,4.7172447945058344,-7.86754656175971,-11.698747356915474
1718308884396617000,3.317616943359375,7.977914815926551,-5.177651059702039,-5.353269492414594
1718308884446387700,3.3673876953125,0.9988637383222579,-3.7349773861974476,-2.0033476546138522
1718308884496158700,3.41715869140625,-7.075411264684796,3.467034890052676,10.675841064226626
1718308884545930800,3.4669306640625,-2.286066279608011,5.12339515337944,2.977079289767146
1718308884595702000,3.516701904296875,-0.011325659601949156,2.1197776930376886,-4.579837726765871
1718308884645474000,3.56647412109375,0.5356440231405198,4.252584671257436,-3.0685476131528615
1718308884695245000,3.6162451171875,1.1266565900206564,-1.4809671638026833,-1.8861171134620904
1718308884745017000,3.66601708984375,1.075830658146739,-2.1147557732224462,0.7337503281235694
1718308884794788000,3.7157880859375,0.8784861313164234,1.4374299276322124,-1.9651152468532322
1718308884844560000,3.765559814453125,2.5545558882415293,-0.6125251643776893,-2.1647230424404142
1718308884894331000,3.815330810546875,0.00912091609928757,-2.5929712513536214,-1.2439555202335117
1718308884944102100,3.86510205078125,-0.9685913496553897,-3.1162019292533394,-3.542711185544729
1718308884993874200,3.914874267578125,1.0376198776960373,-0.5566454562455415,-1.3086527410715818
1718308885043645000,3.96464501953125,-1.4941665448546408,-0.4856055883824825,-1.7118968571096658
1718308885093417000,4.0144169921875,0.3657084583699703,0.4524953459411859,2.2114776332221924
1718308885143188000,4.06418798828125,-0.3036673232649453,0.5848083054125308,-0.8034452841836959
1718308885192959000,4.113958984375,0.5414882191240787,2.7608126203238963,0.6753947313971818
1718308885242731000,4.16373095703125,-0.883278041768074,3.707887134698033,2.531367028094828
1718308885292502000,4.213501953125,-0.7500315277736633,-1.885966891336441,-1.8487613424055278
1718308885342274000,4.263274169921875,1.885854663133621,-2.7896435780107973,-2.481066289138794
1718308885392045000,4.313045166015625,-1.6474129867613314,0.014696633872389793,0.5426423575952649
1718308885441816000,4.362816162109375,-1.4233632622264325,-3.0235920346170664,-0.7601425143562257
1718308885491588000,4.412588134765625,-1.224797815299034,5.855884667786955,-0.4719179854221642
1718308885541358800,4.46235888671875,0.4014707496900111,0.18012685004770754,0.7698270191550254
1718308885591130000,4.512130126953125,-0.6435094276409595,0.02612520585954189,3.379621687276661
1718308885640902100,4.561902099609375,0.20304661092944443,1.7681483211636542,1.4128741630464792
1718308885690672600,4.611672607421875,-1.021820324083045,-4.404724905487895,-0.05577274062633514
1718308885740444700,4.661444580078125,-0.5641501327872276,-0.3851724527746439,-2.783014515259862
1718308885790215700,4.711215576171875,-0.6662029785513878,0.6554676495254039,0.16201982320994138
1718308885839986700,4.760986572265625,0.2953308538079262,0.868283301731944,0.9366448902964591
1718308885889758700,4.8107587890625,1.7510604082405565,0.30904724447131154,0.2584180042132735
1718308885939529700,4.86052978515625,1.1262075310789048,2.103548150509596,0.6017180852897465
1718308885989300700,4.91030078125,-1.8849600523814558,-0.5310340451270341,2.412880641663074
1718308886039072800,4.96007275390625,1.8196867852210998,-2.529268886771798,-1.995796800842881
1718308886088843800,5.00984375,-0.948187736313045,-1.2975748822182416,-2.1232599821954965
1718308886138614500,5.059614501953125,-0.2297441367842257,-1.4733838690668344,-1.6814666475325821
1718308886188386600,5.109386474609375,-0.8034206611990928,-0.011768763726949691,-0.7569520477518439
1718308886238157800,5.15915771484375,1.0671288807749748,-0.8883335715919732,1.7149768490768968
1718308886287929900,5.208929931640625,2.193969010668993,2.7064094144850968,2.5827976478636265
1718308886337700900,5.258700927734375,3.2017420316338536,-0.9452911380887031,0.5397843378156423
1718308886387471600,5.3084716796875,-2.702496040433645,-0.559770310267806,-0.5142322556689382
1718308886437243600,5.35824365234375,-0.4463783243656158,0.7992384070783853,0.143031045101583
1718308886487014700,5.4080146484375,-0.3899778072297573,-2.2754648060947655,-2.1354133613258597
1718308886536786000,5.457785888671875,1.3474644100248814,-3.705302963423729,-1.142888470636308
1718308886586557700,5.5075576171875,-2.2285487411409615,-0.4539467137932777,-2.1336685634851453
1718308886636328700,5.55732861328125,1.3435510359734295,3.4374861394852396,-1.4857947300896048
1718308886686099700,5.607099609375,1.1943149987518786,1.0528998644143341,-1.1617150439202786
1718308886735871700,5.656871826171875,-0.37151736384443934,0.736876935711503,-0.19476941564530134
1718308886785642500,5.706642578125,0.13445581671893597,1.011310547441244,-0.6193675776183605
1718308886835414500,5.75641455078125,-0.40985330504477024,-1.4823603717267513,-0.5228546841941774
1718308886885185800,5.806185791015625,-0.44508302385807036,-0.6632973202377558,-3.9311554995968936
1718308886934956800,5.855956787109375,-0.21661853335453196,0.6730518215328455,-0.38256037058010695
1718308886984728800,5.905728759765625,0.4993442274102941,-0.08302841182053089,-0.13301657769605515
1718308887034499600,5.95549951171875,1.1537947723150253,0.0038929157853126524,0.27717940330654384
1718308887084270600,6.0052705078125,2.1768933727055786,-0.43677579876184464,0.5132644335500895
1718308887134042600,6.055042724609375,2.2023617220915854,1.554625981992483,-0.06702230278477073
1718308887183814000,6.10481396484375,0.32966983432658015,2.98992123568356,-2.289996750924736
1718308887233584600,6.154584716796875,1.4256734388649464,0.9932049819082022,-1.2230657308094204
1718308887283356700,6.204356689453125,1.9530524686157702,0.025893150669336316,-0.9725576229378581
1718308887333127700,6.254127685546875,0.13398527659773826,-0.2596457924425602,0.08962854073792695
1718308887382899700,6.303899658203125,-0.15563947452306748,1.5578063655942678,-0.2889852841734886
1718308887432670700,6.353670654296875,-2.3259027615644037,2.9040573081761596,-1.9818395871609449
1718308887482441700,6.403441650390625,-1.7040601721346378,2.066056916505098,-0.7676783166885376
1718308887532213800,6.4532138671875,-3.247096254098415,-0.5161626392096281,-1.5017355188041925
1718308887581984800,6.50298486328125,-2.083506356216967,-1.7513310418754815,1.7674352044582367
1718308887631755800,6.552755859375,-1.8177789057731628,-1.0068424621164798,-0.4312932756975293
1718308887681527800,6.60252783203125,-2.0248411090195177,-2.907424738782644,-1.4563853879928588
1718308887731298600,6.652298583984375,-1.7613661136776209,-3.018666853174567,-1.9506366396456956
1718308887781069800,6.70206982421875,-1.1620020441681147,-2.6237895834654568,-0.15711656133830545
1718308887830841900,6.751841796875,1.007245197698474,-0.8416378713905811,1.25499947681725
1718308887880612900,6.80161279296875,0.6074615973778069,-0.10560206267833709,2.3786653605893253
1718308887930383600,6.851383544921875,1.8596996466577052,8.221200425198674,4.0598453001350165
1718308887980155600,6.90115576171875,-0.6076598964288831,3.758479842337966,-1.418689571326971
1718308888029926700,6.9509267578125,-6.9534186236977575,-7.9514236993640655,-5.188114586049318
1718308888079698000,7.000697998046875,-0.22668109595179556,2.0060943229734898,-3.092771369305253
1718308888129470000,7.050469970703125,1.3874270025789737,2.275073760950565,-1.309850572554022
1718308888179240700,7.10024072265625,0.11719086672849953,-0.9444196159511804,-0.3663764207594096
1718308888229011700,7.15001171875,1.210358955579996,1.3916829064577818,-0.09473886948898434
1718308888278783700,7.19978369140625,-2.309498593121767,-0.2598328394472599,0.09583148703128098
1718308888328554800,7.2495546875,-1.8005343409836292,0.8064911546856165,2.8605139345258475
1718308888378325800,7.29932568359375,-1.8501555732429027,-3.829887374469638,1.4125029916465281
1718308888428097800,7.349097900390625,0.8367617897868156,0.17976386195421218,-3.398941597035527
1718308888477868800,7.398868896484375,2.725233941942453,2.1153210058897733,-2.4085046185359356
1718308888527639800,7.448639892578125,-0.6110386886795982,-0.5094529124379158,-0.0012406477108597754
1718308888577411600,7.49841162109375,-1.326349725803733,0.34843466748595237,0.8179968835622071
1718308888627182800,7.548182861328125,-0.2069979058384895,0.2701326996654272,0.6205700852759182
1718308888676954600,7.59795458984375,-1.3697136512339114,-0.48650166043937204,-0.3648377399500459
1718308888726726400,7.647726318359375,-0.6758867526978254,-0.2791495343357324,-0.904763751258701
1718308888776497400,7.697497314453125,-0.30854693026635793,-0.08531681501865386,-0.6667882310934364
1718308888826268400,7.747268310546875,0.13817224342618137,0.11690496245920658,-0.5181090240370482
1718308888876040400,7.79704052734375,-0.31117318711671976,-0.09564239419996738,-0.04164265459552407
1718308888925811200,7.846811279296875,-0.4428390077909454,0.26876199583411214,0.4946639241069555
1718308888975582500,7.89658251953125,-0.032490101248957216,-0.7144798104643821,-0.15220584681257604
1718308889025354500,7.9463544921875,1.0272428605884314,0.8824152874588966,-1.1924102611090988
1718308889075125500,7.99612548828125,0.08769293303284793,-0.16176117227375506,-1.265780544681102
1718308889124896300,8.045896240234375,0.44709085654914377,0.2301005490064621,-0.2715586408153176
1718308889174668300,8.095668212890626,-0.24025542952967807,-0.2602069334566593,-0.12244264977686106
1718308889224439300,8.145439208984374,-0.45191433118283747,0.20378946518599986,-0.7607024863265455
1718308889274210600,8.19521044921875,-0.07893676772587932,0.1600339100897312,-0.9792384889412671
1718308889323982600,8.244982666015625,-0.4055272585391998,0.02153378641605377,-0.9685962450262159
1718308889373753300,8.29475341796875,-0.5270072738289833,-0.194275786909461,-0.39544031041935085
1718308889423524400,8.3445244140625,-0.04279401658773422,-0.15020166738331317,-0.7898854723215103
1718308889473296400,8.39429638671875,-0.3491618127167225,0.760637166005373,-1.495976078494638
1718308889523067400,8.4440673828125,-1.113804122710228,0.29394202979803086,-1.3001736665397883
1718308889572838400,8.49383837890625,-0.1664215287676081,0.37000586330294605,-0.22084493714421985
1718308889622610400,8.5436103515625,-0.11912793573830276,-0.2709375863075256,-0.2657907249383628
1718308889672381000,8.593380859375,-1.49110949537158,0.08778057478368281,-0.7323134271882474
1718308889722152000,8.64315185546875,-1.4187550377786158,0.04469546629488468,-0.5975324701681732
1718308889771923000,8.6929228515625,-0.8000807031214237,-0.28590193120539187,-0.4359136289745569
1718308889821695000,8.742695068359374,-0.982315996690467,1.0261696783989667,-0.9591761633172631
1718308889871466000,8.792466064453125,-1.4855027614057064,0.9509089779704809,-1.3278314887940883
1718308889921237000,8.842237060546875,-0.4267360507845878,1.1561527336180208,-1.5649527302175759
1718308889971009000,8.892009033203125,2.874436661416292,-0.7353127551347017,2.192004724858701
1718308890020780000,8.941780029296876,3.6840778045654297,0.8776865053713321,-0.4194537848219275
1718308890070551000,8.991551025390624,1.499257730513811,2.319220945712924,-0.292460851329565
1718308890120322800,9.04132275390625,1.0554349358499049,-1.6436387289196253,-1.3201117081969975
1718308890170094000,9.091093994140625,1.0415338362693787,-2.0492548347860575,-3.764968035313487
1718308890219865000,9.140864990234375,1.9748539660573003,0.05530746120214462,-5.2014989682793615
1718308890269635800,9.1906357421875,1.7948457739531993,3.6962101409077643,-5.588480516302585
1718308890319407900,9.240407958984376,-0.2805157081224024,3.104848760589957,-3.786424664840102
1718308890369179100,9.29017919921875,-1.3390611772082746,1.3618062391102312,-0.800258982297778
1718308890418950100,9.3399501953125,-2.9723206970632075,1.0921078392088412,1.2873911957256494
1718308890468721000,9.389720947265625,-3.023301527237892,0.9485545237988233,1.7350882014743982
1718308890518493000,9.439492919921875,-2.8922856218397617,-0.6438380020081996,2.7924200569868085
1718308890568264000,9.489263916015625,-3.0892820658847686,-1.3380793265640736,0.9279419438809156
1718308890618035200,9.53903515625,-2.637733645404875,-2.255755897018313,0.7394520468965172
1718308890667806000,9.588805908203126,-0.44330403148680925,-2.988506692710519,-0.5769073230296373
1718308890717578000,9.638577880859375,2.679306888025999,-0.9801122761011123,0.7257784724615514
1718308890767348700,9.6883486328125,6.506287435138225,1.7331658551096916,-0.6230548878289759
1718308890817119700,9.73811962890625,1.4906281415954232,-2.119640622654557,2.3754243328414857
1718308890866891800,9.787891845703125,-4.265982497490942,0.3479752332806587,2.171349767103791
1718308890916663000,9.8376630859375,3.7118382104113694,8.810127271845936,2.316579052902013
1718308890966433800,9.887433837890624,-7.216705987513065,-9.742481771472097,-4.3743259678319095
1718308891016204800,9.937204833984374,0.6465699842553585,3.547616493242979,-3.4490620109885928
1718308891065975800,9.986975830078125,-1.2032477353353053,0.7762409778505563,-1.926163292646408
1718308891115747800,10.036747802734375,1.4223054237365722,-2.316096676212549,2.817363651846349
1718308891165518800,10.086518798828125,-1.0914297938168047,-0.14818798947334288,-1.472177269756049
1718308891215289900,10.136289794921876,-0.1612432676131837,-0.2461462594002485,-2.566557876202464
1718308891265060900,10.186060791015626,0.16703125816378742,0.4304442576527595,-0.9570336713958532
1718308891314833000,10.2358330078125,0.9443460392583161,-0.47371232149302955,1.1640149914257227
1718308891364603600,10.285603759765625,1.050826638336852,-0.7019803943753242,-0.21476832064427434
1718308891414375000,10.335375,1.321017132604122,-0.21071663410067556,-1.4168072647117078
1718308891464146000,10.38514599609375,1.8292333428539336,0.7047773316174745,-1.2136172997888177
1718308891513917000,10.4349169921875,2.1667425655692814,0.8404577216953039,-1.3853529727838934
1718308891563688700,10.484688720703126,4.136695023320615,2.5944331405997274,-3.304561185595393
1718308891613459700,10.534459716796874,3.3283480116352435,1.2040355977773665,-1.7318530189454555
1718308891663231000,10.58423095703125,1.282931732098758,5.426623482438922,-1.0683196249295026
1718308891713002000,10.634001953125,0.5358892300732433,0.5020832604527473,4.014343485893309
1718308891762773000,10.68377294921875,-1.0280430710554123,1.3065806109726428,1.4603016846537589
1718308891812545000,10.733544921875,-2.2390920547261834,2.2022522703677416,-2.3528175103664397
1718308891862315800,10.783315673828126,-4.553471113365888,-0.24895780968964099,-1.9672522588819263
1718308891912087000,10.833087158203124,-2.541995974136889,-1.339898943206668,-1.1394875761516392
1718308891961858000,10.882858154296875,-2.968425150929391,-1.6077373944550752,0.8371566343232989
1718308892011628800,10.93262890625,-2.633824363006651,-2.0492045659035445,0.8424047641098499
1718308892061400800,10.98240087890625,-1.420205821108818,-3.040638446485996,-0.5088264511026441
1718308892111171800,11.032171875,0.6072434245824814,-2.307875375834107,-1.4814783281952142
1718308892160943000,11.081943115234376,4.710486844678223,0.052418169501423834,-2.707656199675798
1718308892210713900,11.1317138671875,4.3413811450853945,6.716754478392005,2.1246324395924807
1718308892260484900,11.18148486328125,-1.2361562446594239,-7.195923311725259,3.6583629330724476
1718308892310256000,11.231256103515625,-4.486852569076419,5.418272418200969,3.7468028485476967
1718308892360028000,11.28102783203125,6.076907007324695,5.67269492303729,-1.0735529224731029
1718308892409799000,11.330798828125,-12.81531393007636,-8.610239490273594,-6.449647264027595
1718308892459570000,11.38056982421875,1.9733692804574965,4.542831645929813,-2.515555418717861
1718308892509341000,11.4303408203125,-0.4490191942632198,0.3407219011515379,-0.6758152218315749
1718308892559112200,11.4801123046875,-1.6191116059064865,-2.1613713939249513,2.284624117975682
1718308892608883000,11.529883056640625,-0.48383916323184967,-0.2872211971104145,0.017502813866920767
1718308892658654500,11.579654541015625,-0.8691951558798551,-0.17877718900442122,-2.0668572731025514
1718308892708425500,11.629425537109375,0.9848819747209548,0.03032499563694,-0.9006912411227822
1718308892758196500,11.679196533203125,0.4081868331372738,-0.5530453859269618,1.1864628970120101
1718308892807967500,11.728967529296876,1.8164463419951498,0.05471007983088493,-0.8415061347696929
1718308892857738500,11.778738525390626,1.6413078017540275,0.8351374034553766,-1.2636004241630434
1718308892907509500,11.828509521484374,1.5789005915492773,-0.4934650697112083,-0.6094037444215268
1718308892957281500,11.878281494140625,3.051282005575299,3.4718104338914153,-3.9525697512865063
1718308893007052500,11.928052490234375,3.996219507920742,1.9606746340572834,-0.8604590378470718
1718308893056823600,11.977823486328125,2.0896103721804917,4.204314561346173,-1.2863707666367292
1718308893106594600,12.027594482421875,0.7442004835326224,0.2333236027061939,3.713510819798708
1718308893156365300,12.077365234375,-1.621372536575794,1.9069167403846978,0.5952466973185538
1718308893206136600,12.127136474609374,-0.843977201058343,3.621037703284621,-2.797773692974448
1718308893255907600,12.176907470703124,-4.771315115128457,-0.9491729479581117,0.06972016356661916
1718308893305679600,12.2266796875,-2.6377500120177864,-1.4227268640190363,0.07836524231508374
1718308893355450400,12.276450439453125,-3.1649042931020257,-2.793419004896283,0.3513919098563492
1718308893405221400,12.326221435546875,-2.351019228772819,-2.57471546369493,-1.7643768398009239
1718308893454992600,12.37599267578125,-0.42288872770667074,-2.4845728359550234,0.2817097402125597
1718308893504763400,12.425763427734376,0.923146234036982,-2.8248808956086635,-0.48233708810582754
1718308893554534400,12.475534423828124,4.2515360389873385,-0.16549568262696265,-1.5287038974896072
1718308893604305400,12.525305419921875,3.027495764057338,7.3172057586163275,0.6591077595934272
1718308893654076700,12.57507666015625,-3.7749747578039763,-4.728244327425957,3.2540102712705727
1718308893703849200,12.62484912109375,-0.9792167885661125,8.429311260715126,4.444881267048419
1718308893753620200,12.6746201171875,-1.8016626143611967,-4.462369285205006,-1.2637598525084555
1718308893803391200,12.72439111328125,-4.980052850371599,-2.6805437363445757,-3.936757265126705
1718308893853162200,12.774162353515624,-2.3692297159850595,4.951399002817273,-4.9555993771165605
1718308893902933200,12.823933349609375,0.41134091325402256,-2.7045050421684977,4.352250037363171
1718308893952704300,12.873704345703125,0.08453587550772354,1.2539309708029032,-0.6424677365683019
1718308894002475300,12.923475341796875,-0.6331441740363836,-0.7862047379821538,-0.34951544845998284
1718308894052246300,12.973246337890625,0.7858674688518047,-0.07411036134958267,-0.9219115776754915
1718308894102017300,13.023017333984376,0.7230097384005785,-0.6566811169683933,0.4555889280423522
1718308894151789300,13.072789306640624,1.301231651160121,0.011741875720024109,-0.7788909078374504
1718308894201560300,13.122560302734374,2.1592542556405068,-0.039321956562995905,-0.9705399264398962
1718308894251331300,13.172331298828125,1.8565723084174095,1.4391992753922938,-1.9480647433310747
1718308894301102000,13.22210205078125,3.240744839245081,1.0975099905133248,-1.0290554629683495
1718308894350873300,13.271873291015625,3.474873328593373,3.1637808420300484,-1.3912363317340612
1718308894400644400,13.321644287109375,0.38462760530821977,2.448382163155079,2.6815105355501174
1718308894450415000,13.3714150390625,-2.491802787208557,2.379669276934862,5.58979510603249
1718308894500186000,13.42118603515625,-4.754183363063633,2.668734056085348,-0.8770493765115738
1718308894549957400,13.470957275390624,-2.539687112672627,0.33221243148148055,-2.011747380299121
1718308894599728400,13.520728271484375,-4.97889315894246,-3.0768747119933364,-0.2265900566674769
1718308894649499100,13.5704990234375,-3.307398162586987,-2.2309335904508827,1.2003919805780052
1718308894699269600,13.62026953125,-2.673461961390078,-2.0192109941780565,0.4143113073669374
1718308894749040400,13.670040283203125,-0.4214122254133224,-2.089973798665404,0.6785511496014892
1718308894798812400,13.7198125,1.009477486795187,-1.7205080335885286,-0.6389454076610506
1718308894848583400,13.76958349609375,2.2398341052651403,-1.9276468092024326,-0.10885193131975829
1718308894898354400,13.8193544921875,5.753488707673549,4.5665527132570745,0.5392752923149615
1718308894948125400,13.86912548828125,1.4058108005315064,-2.6021768865942954,2.3120918244853614
1718308894997896400,13.918896484375,-6.39508565275669,-2.238223747459054,3.2403692839309572
1718308895047667500,13.96866748046875,8.167379403162002,13.731138150662183,3.9974715538084507
1718308895097438500,14.0184384765625,-10.326903707915545,-9.228419903934002,0.22638463375587015
1718308895147209500,14.06820947265625,2.4849381621360775,1.716559003701806,-2.9064556014895437
1718308895196980500,14.11798046875,-4.2053240306496615,1.9214514616936444,-6.183899647578596
1718308895246751500,14.16775146484375,2.0117606781721116,-3.0789667158365246,5.832540617078543
1718308895296522500,14.2175224609375,-0.3094973263263702,0.09786474642455577,0.3388123046705499
1718308895346293500,14.26729345703125,-1.0158213028639553,0.055771571582555766,-2.374913752970844
1718308895396064500,14.317064453125,0.4910615157008171,-0.12769815915226937,-0.9696915659822523
1718308895445835500,14.36683544921875,1.469318519324064,0.05788929438889026,1.1884420150652528
1718308895495606500,14.4166064453125,0.6044045478947461,-1.1678624606341124,0.45765988909751176
1718308895545377500,14.46637744140625,1.2025573419183493,-0.5773989059388637,-1.521155527936667
1718308895595148500,14.5161484375,1.6825481591589748,0.4689963988870382,0.3338645095374435
1718308895644919300,14.565919189453124,2.0638393865860998,-0.1328454589128494,0.5566098734755068
1718308895694690800,14.61569091796875,3.8253015079841015,3.1794851916402576,-4.037547251348197
1718308895744462000,14.665462158203125,3.326794060191512,3.9264620810836552,-1.7542383076243102
1718308895794233000,14.715233154296875,0.874168779573962,5.142095177674293,0.07852028674632311
1718308895844003800,14.76500390625,-0.7393337542790919,1.9592156674206256,7.921326082742214
1718308895893775000,14.814775146484376,-3.678513156175613,1.9624217699855564,-0.3807698339015245
1718308895943546000,14.864546142578124,-2.853488858194649,0.8588309982538223,-1.078553361108899
1718308895993317000,14.914317138671874,-4.189727817589044,-1.9794366176724432,-2.0792663805596527
1718308896043088000,14.964087890625,-1.647566716018319,-0.9969225411266088,0.2840034041076898
1718308896092859100,15.013859130859375,0.7874760730922221,0.3058528323441744,-1.043537869568169
1718308896142630100,15.063630126953125,-1.7933651800066233,-1.2546534398585558,-4.1200148144155735
1718308896192401000,15.11340087890625,-2.4237311215013264,-2.5345214004725216,-3.251369693633914
1718308896242172000,15.163171875,-3.0305092666596174,-2.2071686839818954,-0.7832917731449007
1718308896291943200,15.212943115234374,-2.0655176950618626,-2.118839243143797,1.2617869450002908
1718308896341714000,15.2627138671875,0.3668050214350223,0.2812731023609638,6.225660813987255
1718308896391485000,15.31248486328125,-1.0711807865142822,4.561154069083929,3.289085091783106
1718308896441256000,15.362255859375,-2.293674270393699,-2.726707521626353,0.4608014019936323
1718308896491027200,15.412027099609375,-1.2290965354062615,7.639700513681769,-5.178537779408693
1718308896540798000,15.4617978515625,3.7052012566149233,-4.120324611017108,-4.110494706398248
1718308896590569000,15.51156884765625,-4.5050259391486644,1.6321330000430345,-0.4801461539328098
1718308896640340000,15.561340087890626,1.6637854448914526,1.3205384091764687,-2.239368533580005
1718308896690111500,15.611111572265624,0.5524772671828047,-1.3458371010839938,-2.1498741406157613
1718308896739882500,15.660882568359375,-2.364823589980602,0.882242853501439,-0.5020553495325147
1718308896789653200,15.7106533203125,0.8714145854949951,0.4021931456804275,1.1479073217116296
1718308896839424300,15.76042431640625,0.13396072667837142,-0.3707014443516731,0.5821338255062699
1718308896889195500,15.810195556640625,-2.5409406198650597,-0.19138824877440927,-2.313622395053506
1718308896938965200,15.85996533203125,0.3741670746356249,0.546015925681591,-1.1581554517425596
1718308896988736500,15.909736572265626,0.9274638049751519,0.48594461107850073,0.15405235146209598
1718308897038507500,15.959507568359374,0.5677583498796448,0.4088964427113533,0.2689562032319605
1718308897088278300,16.0092783203125,-0.2789110128721222,0.1192477261930704,0.07431669757664203
1718308897138049300,16.05904931640625,-0.9109901514928788,0.03888590323328971,-0.7010666405312717
1718308897187820500,16.108820556640627,-0.2545528349514119,0.5237725296914577,-1.2017096390478312
1718308897237591600,16.158591552734375,0.36236090150773526,0.13880056792497633,-0.31230975339859723
1718308897287362300,16.2083623046875,0.1916524526685476,-0.4304325672149658,0.42869609881117937
1718308897337133300,16.25813330078125,-0.5600561414718628,-0.14834639490544796,0.34262495829388495
1718308897386904600,16.307904541015624,0.1691618039190769,-0.32088615082502364,-0.013768413111567497
1718308897436675300,16.35767529296875,0.46564065871834753,-0.12217208920717239,-0.43624271479845045
1718308897486446300,16.4074462890625,0.42388709109425543,-0.1141506953150034,-0.20864012008756397
1718308897536216600,16.457216552734376,0.27416648522615433,-0.14763094011247158,0.04126023114919662
1718308897585987300,16.5069873046875,-0.13005962758660317,0.18959201300740242,0.15215718536525963
1718308897635758300,16.55675830078125,-0.0853758517295122,-0.0155459441781044,0.15590104806870222
1718308897685528300,16.6065283203125,0.19339315885603428,-0.5212520713031291,0.2833440634161234
1718308897735299300,16.65629931640625,-0.5237129084587097,-0.03639057928621769,-0.5629103618592024
1718308897785070300,16.7060703125,0.00661735404683277,-0.0165349552154541,-0.5215422864213586
1718308897834841300,16.75584130859375,0.5017167652279139,0.1992307789683342,-0.3389262499064207
1718308897884612400,16.8056123046875,0.2231324635595083,0.42823301134407515,-0.14439341949597
1718308897934382300,16.85538232421875,-0.24726094264388082,0.2763070043861866,0.0287925253726542
1718308897984153300,16.9051533203125,-0.8831874408751725,-0.17018179461658,-0.005568009390681982
1718308898033924400,16.95492431640625,-0.8010264595389366,-0.17502455847263335,-0.26350831308960915
1718308898083695400,17.0046953125,-0.16524026482747867,0.4165431580722332,-0.29616847367584703
1718308898133466400,17.05446630859375,0.00934181057466194,0.031816695499420164,-0.25056042258068917
1718308898183237400,17.1042373046875,-0.46767888654768464,-0.2898953847557306,-0.2611860076218843
1718308898233008400,17.15400830078125,-0.15614216334819792,-0.004768529576063156,-0.04539207025691867
1718308898282778400,17.2037783203125,0.2663853298306465,-0.13559738796949386,0.17046426481977103
1718308898332549400,17.25354931640625,0.2522293787062168,-0.22994214357435702,0.005794657753407955
1718308898382320400,17.3033203125,0.5425064562559128,-0.16520751333534717,-0.3066973203442991
1718308898432091100,17.353091064453125,0.5710626886546611,0.07737316253781318,-0.10538052888214587
1718308898481862400,17.4028623046875,0.416332730191946,-0.09508768292665482,-0.4209801176063716
1718308898531633400,17.45263330078125,0.41745618126392364,0.21313830828964708,-0.5292499381892383
1718308898581403100,17.502403076171873,0.054849196040630335,-0.10987433317005633,0.06938537865430117
1718308898631174400,17.55217431640625,-0.4276385525822639,-0.5141080447673797,-0.04864771105200052
1718308898680945700,17.601945556640626,-0.856630857861042,0.08732990840673446,0.20751301575377581
1718308898730716400,17.65171630859375,-0.050689153751730914,-0.4804723171472549,0.024070611417293546
1718308898780487400,17.7014873046875,0.24474749851822852,0.5868892033398151,-0.1687640367731452
1718308898830257400,17.75125732421875,0.017660762641299513,0.5190180286407471,-0.19690891189202664
1718308898880028400,17.8010283203125,-0.6417459981650113,-0.031303485280275344,0.09450111521035433
1718308898929799700,17.850799560546875,-0.5833768113046884,-0.08786766854524612,-0.04694017648175358
1718308898979570700,17.90057080078125,-0.13305822488069532,0.2270499292641878,-0.40140272595509885
1718308899029341400,17.950341552734375,-0.2713298004955053,0.0523193853020668,0.08029182646349071
1718308899079111700,18.000111572265624,-0.2802840913236141,0.04954933606684207,0.001158668515831232
1718308899128882400,18.04988232421875,-0.12427753705382347,-0.33435704229474067,0.13203852644413708
1718308899178653400,18.0996533203125,0.19575049910452216,-0.12638181585669517,-0.005334492895752191
1718308899228424400,18.149424560546876,0.18903668067958204,-0.27535890988111494,0.062038523022830486
1718308899278195700,18.19919580078125,0.5844435637533665,-0.1756634408980608,-0.1892826547972858
1718308899327965400,18.24896533203125,0.6287023921966552,-0.05082534735202789,-0.4428567261107266
1718308899377736400,18.298736328125,0.47820554125905035,0.12729425452649593,0.057525721773505206
1718308899427507700,18.3485078125,0.3546142329037189,-0.032229367953538895,0.5316968929499387
1718308899477278500,18.398278564453125,-0.35922143443822857,-0.35669571535289285,-0.025356851835548876
1718308899527048700,18.448048583984374,-0.5666098008990288,-0.29273908374905583,-0.11939838671013712
1718308899576819500,18.4978193359375,-0.537996285355091,-0.17147767964601515,0.1663844481602311
1718308899626590500,18.547590576171874,-0.016090719720936612,-0.20411270579099655,0.31161665656790133
1718308899676361500,18.597361572265626,0.705884416076541,0.18693769910633562,-0.35602030030936
1718308899726131500,18.64713134765625,0.2756108205492608,0.1515595117330551,-0.7186112111806869
1718308899775902500,18.69690234375,-0.32606559928953643,0.5466308427095413,-1.0169840630330145
1718308899825673500,18.746673583984375,-0.3569371228933334,0.1991688196480274,0.275930426158756
1718308899875443500,18.796443359375,-0.5284931284725666,-0.33660102182924745,0.9864123991586268
1718308899925214500,18.84621435546875,-0.786698658978939,0.019616554617881775,-0.05023658767864108
1718308899974985500,18.8959853515625,-0.1900251254613511,0.3260544933736324,-0.42609731448963284
1718308900024756500,18.945756591796876,0.1291290687382221,0.1697106699734926,-0.5481593674510717
1718308900074526500,18.9955263671875,-0.3604325637936592,-0.18244798647165297,0.29251608864814044
1718308900124297500,19.04529736328125,-0.2669172447502613,-0.4201104951649904,0.8782442853845656
1718308900174068500,19.095068359375,0.21242109993100164,-0.14008067086338996,-0.15212562118321657
1718308900223838500,19.14483837890625,0.6296551628768444,-0.25813538787961005,-0.48705111101567744
1718308900273609500,19.194609375,0.43662616115808484,-0.3107493722140789,-0.25356705705076454
1718308900323380500,19.24438037109375,0.46393622942063956,-0.13788812925517557,-0.031015462119132278
1718308900373150500,19.294150390625,0.3652981605360284,-0.006370704075694083,-0.21065730512887237
1718308900422921500,19.34392138671875,0.34786877723149956,0.03439385251104832,-0.3412342345878482
1718308900472692500,19.3936923828125,-0.08758238533046096,-0.2390969254106283,-0.13272402449026702
1718308900522463500,19.44346337890625,-0.46865912975668905,-0.3006745529234409,0.3201806329041719
1718308900572233500,19.4932333984375,-0.46682022389173505,-0.10455986014902591,0.3916879721485078
1718308900622004500,19.54300439453125,0.03575871112346649,-0.1685048013150692,-0.2764795844741165
1718308900671775700,19.592775634765626,-0.08601531867682934,0.2035311065107584,-0.2641841665245592
1718308900721545700,19.642545654296875,-0.1826952392309904,0.2419944004178047,-0.145569331407547
1718308900771316700,19.692316650390627,-0.4230266383400187,0.27887071739435193,-0.05345744942128658
1718308900821087700,19.742087646484375,-0.5148399027058854,-0.07830839756131172,0.8065306099131703
1718308900870857700,19.791857666015623,-0.554104539591074,0.040453590941429134,0.8266096674762665
1718308900920628700,19.841628662109375,-0.46372693405151366,0.1769002892166376,-0.24086685769259927
1718308900970398700,19.891398681640624,0.24899755717813968,0.23780980820953845,-0.6554955604456365
1718308901020169700,19.941169677734376,0.14942191518247128,0.10563713399171828,-0.029752894837409255
1718308901069940700,19.990940673828124,-0.02240590220862068,-0.42069209444522854,0.9058115067459642
1718308901119710700,20.040710693359376,-0.0692401432310231,-0.21482465394139288,0.03295373670533299
1718308901169481700,20.090481689453124,0.44204701716303824,-0.07721241901814938,-0.4575348014131188
1718308901219252700,20.140252685546876,0.4876350483834743,-0.2167763725310564,-0.35609628815501926
1718308901269022700,20.190022705078125,0.21606963076749816,0.0876069717824459,0.11509703625440597
1718308901318793700,20.239793701171877,0.43467970326542854,0.022513445103168488,-0.5458160191953182
1718308901368564700,20.289564697265625,0.15130816732048988,-0.017749007180333138,-0.4116941106058657
1718308901418334700,20.339334716796873,-0.32154782960414885,-0.24333763172030448,0.19665245291292666
1718308901468105700,20.389105712890625,-0.2672095239614136,-0.3169756993830204,0.43932124546095724
1718308901517875700,20.438875732421874,-0.49456981608271594,-0.43848143363595005,0.31852614369541404
1718308901567646700,20.488646728515626,-0.3192354610085487,-0.21719956637918947,-0.4969977738820016
1718308901617417700,20.538417724609374,-0.029708927831519395,0.04242284518778324,-0.46092415159046646
1718308901667187700,20.588187744140626,0.00498242805507034,0.05381576133966445,0.7301546417191624
1718308901716958700,20.637958740234374,0.13198741731140762,1.077989882007241,0.4279372432678938
1718308901766729000,20.68772900390625,-0.8593985690087079,-0.21374270392358302,-0.2750264630563557
1718308901816500000,20.7375,-1.4196096087813377,-0.05511339993476867,-0.12542115413099528
1718308901866270700,20.787270751953123,-0.737630384427309,0.1124725329697132,0.4661022848807275
1718308901916041000,20.837041015625,-0.5601999338567256,0.1066910269588232,0.38713878441154953
1718308901965812000,20.88681201171875,-0.4461147049933672,-0.07040799970030784,-0.1056952939197421
1718308902015582000,20.93658203125,-0.09290975436568259,-0.143739777892828,-0.13078852638304234
1718308902065353000,20.98635302734375,0.025412673676013946,-0.41023675140440463,0.2898763877943158
1718308902115122700,21.036122802734376,0.14812836824059486,-0.11655834097862243,-0.01833630554899573
1718308902164894000,21.08589404296875,0.4648761040866375,-0.2276250988036394,-0.06382789065763354
1718308902214663700,21.13566357421875,0.6274164440393447,0.14945464840829373,-0.07035553886070847
1718308902264434700,21.1854345703125,0.6413514458894729,-0.15269816037416456,-0.1759834666326642
1718308902314206000,21.2352060546875,0.5259562669387087,0.07511281639039516,-0.09144026633501053
1718308902363975700,21.2849755859375,0.011385317367315292,-0.1657593019992113,-0.33878932565376163
1718308902413747000,21.334746826171877,-0.2897989569102414,-0.2227151149302721,-0.10483692352473735
1718308902463517000,21.384516845703125,-0.3856465365597978,-0.5878723691582679,0.2278876952625811
1718308902513287700,21.43428759765625,-0.030039767221082002,-0.021153262665867804,-0.307967486410588
1718308902563058000,21.484057861328125,0.15448153665959835,-0.059416065564751624,-0.42535175681933757
1718308902612829000,21.533828857421874,-0.0804547802065499,0.3066355071544647,0.2234295468099415
1718308902662599000,21.583598876953126,-0.27660162168489766,0.21638532738685606,0.6833942057184874
1718308902712370200,21.6333701171875,-0.7261468673825263,0.33183424581885335,0.2789731548555195
1718308902762140200,21.68314013671875,-1.331498779129982,-0.37910570008158684,0.5299819057255983
1718308902811911400,21.732911376953126,-0.7802771014988422,0.012618074032664298,-0.3035207361347973
1718308902861681200,21.78268115234375,-0.4923568162083625,0.37748832801282406,-0.5183965357415378
1718308902911452400,21.832452392578126,-0.45095279267430305,-0.1146428627461195,0.5931231292933226
1718308902961222100,21.88222216796875,-0.719582686561346,-0.2698474529832601,0.7520235053084791
1718308903010993200,21.9319931640625,-0.2412532266616821,-0.18685469699800014,-0.2614773917838931
1718308903060763100,21.98176318359375,-0.4199111732006073,0.10363923817276954,0.005361380902677774
1718308903110534100,22.0315341796875,0.4390098414242267,-0.4124667024135589,-0.3431749933920801
1718308903160304400,22.081304443359375,1.117259816122055,-0.07852116352915764,-0.42232583312690253
1718308903210075100,22.1310751953125,1.1803133614063261,0.35347909139394756,0.37897900496199727
1718308903259845400,22.180845458984376,0.7724410010457038,0.03558335455656052,0.1380618783868849
1718308903309616400,22.230616455078124,0.3060229099477641,-0.17170096700787543,-0.4442234844192862
1718308903359386000,22.28038623046875,-0.22515202322099356,-0.10976093592345713,-0.35865722468420863
1718308903409157400,22.330157470703124,-0.5588391668975353,-0.2903103952974081,0.044213820257782935
1718308903458927000,22.379927001953124,-0.4230559009671211,-0.42443128097355365,0.07764306552037596
1718308903508698000,22.429697998046876,-0.2634919464766979,0.2109019275397062,0.08055544583573937
1718308903558468400,22.47946826171875,0.07639584193825721,-0.10964227797985077,0.10857713296636938
1718308903608239000,22.529239013671877,0.3061825026899576,-0.07617021648883819,-0.06852057851850986
1718308903658009300,22.57900927734375,-0.10903612878024578,0.625614363053441,-0.7579227924801408
1718308903707779300,22.628779296875,-1.1165747564673423,0.15830489434003828,0.2053884248152375
1718308903757549600,22.678549560546877,-1.3972154061436652,-0.4889303488910198,0.9345151847913861
1718308903807319300,22.7283193359375,-0.6929425169169903,0.18376491428911684,0.41927389821037647
1718308903857090600,22.778090576171873,-0.07587796011057216,0.08267828320860862,-0.010903671330213546
1718308903906860500,22.827860595703125,-0.04679214631319046,0.28465806862413884,-0.34485958547815676
1718308903956631300,22.87763134765625,-0.17733809611201284,-0.27795418707132336,0.41693040382415053
1718308904006401500,22.927401611328126,0.13455810804963111,-0.2924129205346107,0.03629837095811963
1718308904056172500,22.977172607421874,0.4963935243785381,-0.04739011220633983,-0.5208334074996411
1718308904105942500,23.026942626953126,0.14253920646402984,-0.1743085191577673,-0.36464798953160643
1718308904155713500,23.076713623046874,0.2861737338840961,-0.12789455850720405,0.356147141559422
1718308904205483500,23.1264833984375,0.4273521733889356,-0.14547989955842494,-0.08970029079988598
1718308904255253500,23.17625341796875,0.4063994017312303,0.18235913914442062,-0.4243951867468655
1718308904305024500,23.2260244140625,0.056947611358296124,-0.09267653013169765,-0.3142158792808652
1718308904354794500,23.27579443359375,-0.5968705721933394,-0.36973172253668307,0.4798505319871008
1718308904404565500,23.3255654296875,-0.3868704888641834,-0.3746306004941463,0.2892100328400731
1718308904454335500,23.37533544921875,0.11772504667043686,-0.018324761241674422,-0.43101475101709363
1718308904504105500,23.42510546875,0.32867198239564893,0.32305531155765055,-0.3266419378727674
1718308904553876700,23.474876708984375,0.09377424397422,-0.17895663722455502,0.23642376067861914
1718308904603646500,23.524646484375,-0.4573819124063477,0.2732604762971401,-0.062211979893594976
1718308904653417500,23.57441748046875,-0.5938800851404666,0.12747662535607815,0.5557762721955776
1718308904703188000,23.62418798828125,-0.6124684657543897,-0.007388941207528114,-0.1788059767074883
1718308904752958000,23.6739580078125,-0.8362070785135031,0.07210545126795768,-0.03704495154172182
1718308904802729200,23.723729248046876,-0.5467530077844858,0.1391162097454071,0.19819544457122681
1718308904852499000,23.7734990234375,-0.2140922480136156,0.06299684666097163,-0.007243541387468576
1718308904902270000,23.82327001953125,-0.37167934947311876,-0.21134090347886084,0.3237586375214159
1718308904952040000,23.8730400390625,-0.9124912767708301,-0.06757949827611447,0.5749048971660435
1718308905001810200,23.92281005859375,-0.26131518695950506,-0.3747428286969661,0.2245385309651494
1718308905051581000,23.972580810546877,0.2105611330117099,-0.17701544002890585,-0.3220423351228237
1718308905101351000,24.022350830078125,0.8184265071511269,-0.31724107232093807,-0.5816162313729524
1718308905151121200,24.07212109375,1.2198013221859931,0.22982991537153719,-0.269829040543735
1718308905200892000,24.121891845703125,0.892034179675579,0.08860591969192028,-0.12405264225676656
1718308905250662100,24.171662109375,0.526217000234127,-0.1919885527551174,0.025828122609108686
1718308905300433000,24.221432861328125,0.06401561351576819,-0.08424012569785118,-0.05037628841027617
1718308905350203100,24.271203125,-0.21995441804528235,-0.29661680196523665,-0.039136370863020416
1718308905399972900,24.320972900390625,-0.5754910264909268,-0.3432160560548305,0.19221023268178103
1718308905449744000,24.370743896484374,-0.3155401136219501,-0.10348141726255417,-0.23214038427099584
1718308905499514000,24.42051416015625,0.033760815304517744,0.15760405259430407,-0.123319797937572
1718308905549284000,24.4702841796875,-0.02849604491041973,0.0021048633247613907,0.47199280422404405
1718308905599055000,24.52005517578125,-0.08767126919031143,0.31069092002511023,-0.04692454052120447
1718308905648824800,24.569824951171874,-0.4911053548425436,0.24309797774553296,-0.03168050189912319
1718308905698595300,24.61959521484375,-1.1370447130441665,-0.18437457062005996,0.6161208507820963
1718308905748366300,24.669366455078126,-0.7758867575854063,-0.012966449078917502,-0.04101180934607982
1718308905798136600,24.719136474609375,-0.12127777071595192,0.2816390130639076,-0.2361576570883393
1718308905847907300,24.7689072265625,-0.38265608603954315,0.12832184400856494,0.18625015523359179
1718308905897677300,24.81867724609375,-0.4604436745971441,-0.14580664729475973,0.140800509570539
1718308905947447300,24.868447265625,-0.2460685179889202,-0.2618009246498346,0.18952479299008845
1718308905997218300,24.91821826171875,0.06489362932615914,-0.20966741730868815,0.12494710687845945
1718308906046988300,24.96798828125,0.7160872456610202,-0.14276537990272045,-0.32129429323449726
1718308906096758300,25.01775830078125,0.8303858250141143,-0.19259704004228115,-0.277726369664818
1718308906146528300,25.0675283203125,0.6182815359473228,0.06886252382397651,-0.23108006156310437
1718308906196299300,25.11729931640625,0.6589876403450966,-0.0952583633184433,-0.03474135077446699
1718308906246069500,25.167069580078124,0.29227378605855625,-0.04106675440371036,0.15454612632840872
1718308906295839200,25.216839111328124,0.13610590374721213,-0.1150742399007082,0.007402239080518484
1718308906345610500,25.266610595703124,-0.1344844582915306,-0.23898002103269098,0.06282631239965558
1718308906395380200,25.316380126953124,-0.34328619868159294,-0.34664778406918045,-0.010138093785196542
1718308906445150500,25.366150390625,-0.31503508670926095,-0.002697568520903587,0.0008295826919376849
1718308906494921500,25.41592138671875,0.2506348029911518,-0.04908347212076187,-0.10656462410017847
1718308906544691200,25.465691162109376,-0.22768240021513775,0.1315484048396349,-0.02806669531613588
1718308906594461400,25.51546142578125,-0.6412555842995643,0.3122983552217483,-0.43809725662395355
1718308906644231400,25.5652314453125,-0.8894476703137159,0.20305764378011226,1.0010185782685874
1718308906694001700,25.615001708984376,-0.44167233863174915,-0.6105939040541648,0.47938291447535153
1718308906743771600,25.664771728515625,-0.37048696135077624,0.23037235168516634,-0.857566969667375
1718308906793541600,25.714541748046877,-0.071030497246515,0.4061941980153322,-0.19296353526711463
1718308906843312600,25.764312744140625,0.1499882986272685,0.1729442450672388,0.11154314316511153
1718308906893082600,25.81408251953125,0.42376375697553154,-0.21286650561094284,0.5207194257311523
1718308906942852600,25.8638525390625,0.2704851663649082,0.2523503747373819,0.3643418461918831
1718308906992622600,25.91362255859375,-0.20197803184986113,-0.31973405818045136,0.13076967555209992
1718308907042393600,25.9633935546875,0.02102057619690895,-0.026119945162534713,-0.2721656667977571
1718308907092163600,26.01316357421875,0.28912788924826305,-0.44868426322042937,-0.6940086848437785
1718308907141933600,26.06293359375,0.0936766836175695,0.23188860146701334,-0.265548879006505
1718308907191703600,26.11270361328125,-0.0150315283825621,-0.10180091682970523,0.5096705007113516
1718308907241474600,26.162474609375,-0.18090135981785133,-0.3380336849808693,0.44584597105458373
1718308907291244800,26.212244873046874,-0.1698725460043177,0.22811960432231426,0.068194853695482
1718308907341014500,26.2620146484375,0.050628984529711304,-0.5593354259818792,-0.48905982048958535
1718308907390784800,26.31178466796875,0.19976274868687613,-0.19106734625697136,-0.389118560051918
1718308907440555500,26.361555419921874,-0.12912554334057494,-0.12867957140505312,0.09088716249689459
1718308907490325800,26.41132568359375,0.1529401524364948,-0.0870885008662939,-0.3827241828396916
1718308907540095500,26.461095458984374,0.20476737030744552,0.356503407651186,-0.02289659920185804
1718308907589865700,26.51086572265625,0.25371930673671883,0.4157318416893482,-0.12501067363396287
1718308907639636700,26.56063671875,-1.058010339295864,-0.09076806616187096,0.36078809923306104
1718308907689406700,26.61040673828125,-1.3971867645710705,-0.1065337905704975,0.18116335348859428
1718308907739176400,26.660176513671875,-1.076464864397049,-0.23848551551401614,-0.008321399752050637
1718308907788946700,26.70994677734375,-0.2617623462051153,0.2305097143292427,0.20802973310425876
1718308907838717700,26.7597177734375,-0.07428572704964317,0.14699673386216164,0.03397577322944999
1718308907888487700,26.80948779296875,-0.06444178477227687,0.15136486594378948,0.1684359738625586
1718308907938257700,26.859257568359375,-0.38533085820674895,-0.2980868745177984,0.17480492437258363
1718308907988027600,26.909027587890623,-0.3366600585401058,-0.06266892988085747,0.3946272404707968
1718308908037797600,26.958797607421875,-0.13523730421913788,-0.42496085780560966,0.4309383247800171
1718308908087568600,27.008568603515624,0.6832686796426772,-0.06061725804805755,-0.32712256099656223
1718308908137338600,27.058338623046875,0.6521101557910441,-0.00046352585852146145,-0.5632938082188368
1718308908187108600,27.108108642578124,0.6312415552854538,-0.0706149204492569,-0.07314370827451348
1718308908236878600,27.157878662109376,0.6049380702495575,-0.008908698120713234,-0.09828428701087832
1718308908286648600,27.207648681640624,0.15868947321083396,-0.08303191895186901,-0.5104197116434573
1718308908336419600,27.257419677734376,0.10763035363554954,-0.06537000553309917,-0.45560266430675983
1718308908386189800,27.30718994140625,-0.3108885249564424,-0.41176059997081754,0.3299576382920146
1718308908435959600,27.35695947265625,-0.5569499921500682,-0.2828437126785517,-0.11591565916091202
1718308908485729800,27.406729736328124,0.0973451064646244,0.06552081218063831,-0.5077757730059326
1718308908535499500,27.45649951171875,0.17943828326165676,0.4068213900029659,0.14506196640729904
1718308908585270500,27.5062705078125,-0.229444112658035,-0.06518237400650978,0.9081178839921951
1718308908635040500,27.55604052734375,-0.5922188739299774,0.16847323713302612,0.04997983643859624
1718308908684810500,27.605810546875,-0.781288324368,0.06273322728872299,-0.35204350563287734
1718308908734580500,27.65558056640625,-0.6475649135768413,0.09292378289103508,-0.23876097145453093
1718308908784350500,27.7053505859375,-0.24302374346554279,0.03580313478708267,-0.12230857506841421
1718308908834120400,27.755120361328125,-0.22045476878285405,0.0026122283250093457,-0.11739552245512604
1718308908883891500,27.804891357421877,-0.30514380729198454,0.020593875217437742,0.45981955134943125
1718308908933661400,27.854661376953125,-0.5913619648396968,-0.1278361063182354,0.5837158340007066
1718308908983431700,27.904431640625,-0.10354805275797843,-0.19391747499108314,0.6334215296730399
1718308909033201400,27.954201416015625,0.21996377039551734,-0.0978372738957405,0.21114333508014677
1718308909082971600,28.0039716796875,0.3707154728770256,-0.0749193396449089,-0.6283069631382823
1718308909132741400,28.053741455078125,0.2936719076197594,-0.13769289894402026,-0.3425719129323959
1718308909182512600,28.1035126953125,0.4795815057873726,-0.25540683969855305,-0.4331485481753945
1718308909232282400,28.153282470703125,0.2559644735813141,0.015445406413078308,0.041536417742073534
1718308909282052600,28.203052490234374,-0.029603713891375807,0.19531097517609594,0.28297815271317955
1718308909331822300,28.252822265625,0.48459670360088347,-0.14530805012285708,0.21263898046538232
1718308909381592600,28.302592529296874,-0.13473697174787522,-0.19650866052806376,-0.14427081602960823
1718308909431362300,28.3523623046875,-0.26621698752641676,-0.26736265043020246,0.015887158831208944
1718308909481132500,28.402132568359374,-0.05603227747851051,-0.2754793213903904,-0.026478841602802276
1718308909530903600,28.451903564453126,-0.0032668928414583205,0.22849136024415492,-0.01949731215238571
1718308909580673500,28.501673583984374,0.09014379678368568,0.07724339867830277,0.14680033450722693
1718308909630443500,28.551443603515626,0.044495523275993765,0.1483054783731699,-0.33987712089046834
1718308909680214500,28.601214599609374,-0.1475122456362471,0.4675801023483276,-0.16345613962337374
1718308909729984300,28.650984375,-0.7175555646479129,-0.060301616227626795,0.5584489985361695
1718308909779754500,28.70075439453125,-0.8994090923577547,-0.27123335438370705,0.7974618989251554
1718308909829524200,28.750524169921874,-0.1352554426640272,0.059034957292675966,0.02747194429337978
1718308909879295200,28.800295166015626,0.3824053261488676,0.32176468722522256,-0.4754994971707463
1718308909929065500,28.8500654296875,0.39099487531781196,-0.09054302523434161,0.07509455008134246
1718308909978835500,28.89983544921875,0.12060909594045952,-0.29548750567436216,0.3801585701353848
1718308910028605400,28.94960546875,0.2291372203996405,-0.34137539662420746,-0.33762232770100237
1718308910078375400,28.99937548828125,0.3205541423916817,-0.1150128651022911,-0.6200342248335481
1718308910128145400,29.0491455078125,0.45114685394167897,-0.23963059389591215,0.03869827170670032
1718308910177915400,29.098915283203127,0.4895031438102945,-0.09444587789177894,0.24793825738355516
1718308910227685400,29.148685302734375,0.13409984288811683,-0.14775953492820262,0.08773059816211462
1718308910277456400,29.198456298828123,0.10700608425736427,0.023294366347789763,-0.38187779514342546
1718308910327226400,29.248226318359375,-0.2264309205830097,-0.13312778298556804,-0.293799990978837
1718308910376996400,29.297996337890623,-0.45076106949448586,-0.4815495909899473,0.07533332727327942
1718308910426766300,29.347766357421875,-0.41281040128469465,-0.23482465491890905,0.17638620221465826
1718308910476536300,29.397536376953123,-0.01670680350937764,-0.14276771799027918,-0.44690804732814426
1718308910526306300,29.447306396484375,-0.05501812286674976,0.2248106259047985,-0.0606553981013596
1718308910576076300,29.497076171875,0.007881072106026113,0.08064414703249931,0.3767515381708741
1718308910625846300,29.54684619140625,0.12231471254825592,0.45601592128276824,-0.3463344803363085
1718308910675616300,29.5966162109375,-0.8389005553811788,0.2287795295357704,-0.11573065798282622
1718308910725387300,29.64638720703125,-1.2093617612361907,-0.19949790547192095,0.7709248973943292
1718308910775157200,29.6961572265625,-0.6985907519370317,-0.23360358869135378,1.0360340698093176
1718308910824927200,29.74592724609375,-0.4913689742147922,0.0033089784175157544,0.22711466506347058
1718308910874697200,29.795697265625,-0.09411739485608413,0.21139818662405013,-0.41398967419713734
1718308910924467200,29.84546728515625,0.02282032822840847,-0.04668868593871593,0.001254822366684675
1718308910974237200,29.8952373046875,0.016174888589762848,-0.06806757405400275,0.07759118920266628
1718308911024007400,29.94500732421875,-0.017146365112066266,-0.08097147929072379,-0.4097494062788784
1718308911073777200,29.994777099609376,0.007430442261695862,-0.15083119745850562,-0.47436552470475435
1718308911123547400,30.04454736328125,0.08336449364079163,-0.11038462077975272,-0.38970761198624965
1718308911173317000,30.094317138671876,0.16940145789384842,-0.25902795280516144,0.13291384797394276
1718308911223088400,30.14408837890625,0.4009481140553951,0.13500176016390322,0.36391719103902576
1718308911272858000,30.193858154296876,0.5227028546333312,0.12895838834643364,0.41227366405948995
1718308911322628400,30.24362841796875,-0.28466917454004287,-0.5599608644038438,-0.07788929536640643
1718308911372398000,30.293398193359376,-0.04772860517939553,-0.08948796322345733,-0.9816405085816979
1718308911422168300,30.343168212890625,-0.5437865591943264,-0.004020926079154014,-0.8040374779231846
1718308911471938000,30.39293798828125,-0.49233343533277507,0.18476678480803965,0.14261545003801585
1718308911521708300,30.442708251953125,-0.13233575582504273,0.5187175843894481,0.8746694956377148
1718308911571478000,30.49247802734375,-0.5790799908936023,-0.6511708291143179,0.9686525783233344
1718308911621248300,30.542248291015625,-0.8486813601613045,-0.2510918991088867,0.09885653394088148
1718308911671018200,30.592018310546877,-0.6290016674041747,-0.4076841443121433,-0.5424421588480473
1718308911720789500,30.64178955078125,-0.11052839489830657,-0.09518237547278403,-0.3179094731017947
1718308911770559200,30.691559326171873,0.44562662921547885,0.20365853228271005,-0.09333587082326411
1718308911820329500,30.74132958984375,1.1351222205489873,1.0299708242475987,0.5268079518646002
1718308911870099200,30.79109912109375,0.595037438482046,0.05532499685883522,0.5747378700360656
1718308911919869400,30.840869384765625,-1.2594248920440674,-0.3733931676536798,-0.32343203591555353
1718308911969639400,30.890639404296873,-0.4669570385465398,-0.18512451220452783,-0.44582229791805145
1718308912019409400,30.940409423828125,-0.34730186406373975,-0.07957797910571097,0.6441565664380788
1718308912069179400,30.990179443359374,-0.46462359063029285,-0.18735095608234403,0.6641622665040194
1718308912118949400,31.039949462890625,-0.09538809064533561,-0.11886661792099475,0.2596101366072893
1718308912168719400,31.08971923828125,0.7523720264852046,-0.04422784878313541,-0.7980749162569641
1718308912218490400,31.139490478515626,0.35780338433384895,0.09316460590958595,-0.30234497035369273
1718308912268260400,31.18926025390625,0.14633388603925704,-0.15669512105584144,-0.08864259844049811
1718308912318030300,31.2390302734375,0.7101075867295265,0.07262275314033032,-0.22831045071929693
1718308912367800600,31.288800537109374,0.580482806896232,0.15460603982210158,-0.2858738741546869
1718308912417570300,31.3385703125,-0.19807576371431349,-0.20765900009572505,-0.10590352984294295
1718308912467340500,31.388340576171874,-0.5812696098923683,-0.20085282721221445,-0.033605332481861115
1718308912517110300,31.4381103515625,-1.4117922130286693,-0.3562964869022369,0.624099866837263
1718308912566880500,31.487880615234374,-0.7790753244936466,-0.28637247132658955,0.23061478213891384
1718308912616650200,31.537650146484374,-0.2517407184064388,0.021055062988400458,0.10925561674982309
1718308912666421500,31.58742138671875,0.3106675391495228,-0.09342004197537898,0.08725479734390973
1718308912716191200,31.637191162109374,0.38732992306947706,0.12506313447356224,0.09978680052831769
1718308912765961500,31.68696142578125,0.3067512424886226,0.07042962701022625,-0.5635495365455746
1718308912815731200,31.736731201171875,0.37019817100465296,0.16431904006302356,-0.00014218494966626168
1718308912865501400,31.78650146484375,0.5578261904627084,0.5954658930271863,0.22007804442495107
1718308912915271200,31.836271240234375,0.35751579956412316,0.014067688319087028,0.18224603415876625
1718308912965041400,31.88604150390625,-0.5173872125685215,-0.2774953373879194,0.11080489201843738
1718308913014811400,31.935811279296875,-0.5857376952171325,0.01163549273610115,0.015639613810926673
1718308913064581400,31.985581298828127,-0.002201309436559677,0.095728903439641,0.4981853762313723
1718308913114352400,32.03535229492188,-0.49617370761539786,-0.2478887191534042,0.7554407664060592
1718308913164122400,32.08512231445312,-0.9434218370854854,-0.3055693392276764,0.595614069326222
1718308913213892400,32.134892333984375,-0.28637597845792767,-0.25970950532853604,-0.7746149840839207
1718308913263662300,32.18466235351563,-0.10450078690554947,0.08683832549750804,-0.31157340194806454
1718308913313432600,32.2344326171875,1.008794765228033,0.11408230625391005,-0.1989377873711288
1718308913363202300,32.28420239257812,1.1782488300919531,-0.21873510538339613,-0.07118731350973248
1718308913412972500,32.33397265625,0.7632803739905357,0.5481120211780071,-0.4603565808355808
1718308913462742300,32.3837421875,-0.5680337327549234,-0.18620470865666866,-0.5194385921403766
1718308913512513300,32.43351318359375,-1.3719067773640155,-0.48271278955042357,0.8544992526598274
1718308913562283300,32.483283203125,-1.1991115853786467,-0.22165713030993936,0.3215747176110744
1718308913612053500,32.53305346679687,-0.7493605697095393,-0.5061515328049659,-0.37200682786181566
1718308913661823200,32.5828232421875,0.18762568137049673,0.05478080697953701,-0.48921077326759693
1718308913711592400,32.63259252929687,0.9120733436197042,0.39486850188076494,-0.29137685548514125
1718308913761362400,32.682362548828124,0.38523441209495063,0.2554974405914545,0.1627079516045749
1718308913811132400,32.73213232421875,-0.06369242314312142,-0.06536182222664357,0.34124548663422466
1718308913860902700,32.78190258789063,-0.10846797350347041,0.06608896745741367,-0.20637217515558004
1718308913910673700,32.831673583984376,-0.0684188717097044,0.4842980129152536,-0.052449441422522065
1718308913960443400,32.881443359375,-0.5068623114228248,0.023675474619865414,0.697777097466588
1718308914010213600,32.93121362304687,-0.6348048007249831,-0.28106092091500756,0.44074747887179255
1718308914059983600,32.980983642578124,-0.8078712108671665,-0.03254091812074184,0.08027487532868981
1718308914109753600,33.030753662109376,-0.6976011563777923,-0.21162030494213102,-0.10781140929087996
1718308914159523600,33.08052368164063,-0.5975824467897415,-0.14575053319334982,0.5373948123306036
1718308914209293600,33.13029345703125,-0.4353156630814075,-0.06611643998622894,-0.19161080548390744
1718308914259064300,33.180064208984376,0.24863570159580556,-0.37072014905214307,-0.24610505060702562
1718308914308834600,33.22983447265625,1.395106451165676,0.42646074097454545,-0.7432543617889285
1718308914358604500,33.2796044921875,0.8683984525442123,0.1625134519457817,-0.413352545337379
1718308914408374500,33.32937451171875,-0.1339899345065467,-0.26677462140917774,-0.01958849756717682
1718308914458144500,33.37914453125,-0.6367758085370063,-0.026939444851875303,-0.34035043749064203
1718308914507914500,33.42891455078125,-1.079679734790325,-0.2083499049693346,0.35326617929562926
1718308914557685500,33.478685546875,-0.8268518056690692,-0.1427057586699724,0.19530264573916792
1718308914607455500,33.52845556640625,0.04497077610492706,-0.19988193635344503,-0.10223974663838743
1718308914657225700,33.578225830078125,-0.01619009643369354,-0.13318974230587483,0.16099880959913135
1718308914706995500,33.627995361328125,0.7106763265281916,0.07553776380419731,-0.6161380941778422
1718308914756765400,33.67776538085938,0.663194444385171,0.25511633231937886,-0.45808659007698294
1718308914806535400,33.72753540039062,0.6111124115029349,0.2975894463896751,0.37281785198375583
1718308914856306400,33.77730639648438,0.178593082875479,0.1646264985769987,0.6533703849852085
1718308914906076400,33.82707641601562,-0.003596563187241554,0.37066345042884347,0.372368062389642
1718308914955846700,33.8768466796875,-0.45891982603073117,-0.15416764840483665,0.24051219903603194
1718308915005616400,33.926616455078126,-0.45826925316751,-0.3080067955076694,-0.24172698165327308
1718308915055386600,33.97638671875,-0.3458148403763771,0.007006663891673088,-0.10282251496240497
1718308915105156400,34.02615625,-0.016048633003234863,-0.21621113986372947,0.16733137362152337
1718308915154927600,34.075927734375,-0.0060346131222788245,-0.004675006073713303,0.17893413313180206
1718308915204697300,34.125697265625,0.00826747760772705,-0.16403028624951838,-0.20542145030200482
1718308915254467600,34.175467529296874,1.0749462765276432,-0.5657312644988298,-0.6120316817723215
1718308915304237300,34.2252373046875,1.4067933818280696,0.316377733489871,-1.332740595884621
1718308915354007600,34.27500756835938,0.856046920493245,0.534003416326642,0.24495105826631186
1718308915403778600,34.324778564453126,-0.14919161355793475,-0.1590185955673456,1.1945710193395613
1718308915453548500,34.37454858398438,-0.7565332378178834,-0.5503291127055883,0.1371943017721176
1718308915503318500,34.42431860351562,-1.175209316265583,0.02339431959092617,-0.700410368579626
1718308915553088500,34.474088623046875,-0.6575310117959976,-0.19075228895843027,-0.18028613226264714
1718308915602858500,34.5238583984375,0.14262799899233505,-0.07184650807082653,0.29149712086394425
1718308915652628500,34.57362841796875,0.6234703367620706,0.035379356417059894,-0.1204297755844891
1718308915702400500,34.623400390625,-0.013691804211400448,0.0285386967420578,-0.2832698291361332
1718308915752170200,34.67317016601562,-0.11961071428656578,0.06336801806092261,-0.23484014474898576
1718308915801940500,34.7229404296875,0.0005447744011878967,-0.15396131217777728,0.36349867336601016
1718308915851710200,34.77271020507813,0.417339861407876,0.1986591165602207,0.30474399431943894
1718308915901480400,34.82248046875,0.1513636969000101,0.3078857994765043,-0.05147065951824188
1718308915951250400,34.87225048828125,-0.5543301650404929,-0.11816402260959148,0.27100670602098104
1718308916001021400,34.922021484375,-0.5480149905443191,-0.3395557799816131,0.14923881370052694
1718308916050791400,34.97179150390625,-0.1097147586941719,-0.17062486220896242,-0.24937837318927047
1718308916100561400,35.0215615234375,-0.07378419813513755,0.035658757880330086,0.16138284048065543
1718308916150331400,35.07133129882813,0.5201730438947677,0.1020464160233736,-0.2862694493435323
1718308916200101400,35.12110131835937,0.8190215504348277,-0.584752191311121,-0.039714316881448025
1718308916249872400,35.17087231445313,1.560659416937828,0.2925134582996368,-1.3520137438923119
1718308916299642400,35.22064233398437,0.7591185781359672,-0.016019406908750533,-0.6650239978998899
1718308916349412400,35.270412353515624,0.8452852879822254,0.19955109696388243,0.21502879821136592
1718308916399182300,35.320182373046876,-0.17676409561634063,-0.23166005340814588,0.41190556139945983
1718308916448952300,35.36995239257813,-0.0028162264645099637,-0.45055882492065424,-0.19793416328653693
1718308916498723600,35.4197236328125,-0.8116454687088728,0.03541325868666172,-0.6230579565688967
1718308916548493300,35.46949340820313,-0.7699719805836677,-0.18402035035490988,0.05184592257142066
1718308916598263600,35.519263671875,-0.8717939402014017,0.13144085281193255,0.5806050085037946
1718308916648033300,35.569033203125,-0.6940332347631454,-0.4132762652307749,0.8819552687317133
1718308916697803000,35.618802978515625,-0.3625368060639128,-0.1382055246412754,0.2985717354252934
1718308916747574000,35.66857397460937,0.14755966497454792,0.18590543344914912,-0.4992904148638248
1718308916797344000,35.718343994140625,0.38819614797737445,0.22730361176431177,-0.5523635411426424
1718308916847114000,35.76811401367188,0.7075058797985315,0.03728723586499691,-0.366455915736407
1718308916896884000,35.81788403320313,0.8296458203017711,0.5185422278225421,-0.07805603023543953
1718308916946654200,35.867654296875,0.2431131387820467,0.3166261552929878,0.37592137095704675
1718308916996424000,35.917423828125,-0.8343693416923285,0.05815583637058735,0.8285495494976639
1718308917046195000,35.96719482421875,-0.9362760569840669,-0.8672007671922445,0.3847020587839186
1718308917095965000,36.01696484375,-0.728232441484928,0.018138883280754088,-0.8162371804133057
1718308917145735000,36.06673486328125,0.4130050470739603,-0.03939502179920673,-0.6815813110776245
1718308917195505000,36.1165048828125,0.692935502654314,0.07417582780122757,0.004498042071610689
1718308917245275100,36.166275146484374,0.4144809648454189,-0.07316460493206978,0.3252133663743734
1718308917295046100,36.21604614257812,0.5522761551201343,-0.5346621724963188,-0.5577012489087879
1718308917344815900,36.26581591796875,1.0480337196826934,0.4217892420321703,-0.7157809561908245
1718308917394586000,36.315586181640626,0.7443699218153953,0.2727858445227146,0.16826076342612503
1718308917444355800,36.36535595703125,0.19486323140859602,-0.37667350449860093,0.2827643638320267
1718308917494126000,36.4151259765625,-0.43108372460007666,-0.15578443595170974,-0.04292670305669308
1718308917543896800,36.464896728515626,-1.0629729301393032,-0.11637129397392272,0.1308458095282316
1718308917593667000,36.5146669921875,-0.42577275871038434,-0.2574450675278902,-0.369076327367872
1718308917643436800,36.56443676757812,-0.15009820700883864,0.3087111443847418,0.21837197115942836
1718308917693207300,36.614207275390626,0.25918403841601684,-0.10694997015595435,0.40307591986432667
1718308917742977000,36.66397705078125,-0.05043311489773914,-0.004656885895133018,0.2846503237091005
1718308917792748300,36.71374829101563,0.18883332186089827,0.13508826940357685,0.06983750633597373
1718308917842518000,36.76351806640625,0.12849780336366964,-0.15493863277733325,-0.5647257407180964
1718308917892288300,36.81328833007812,0.318000366255641,0.362266208961606,-0.5918972407601774
1718308917942058000,36.86305810546875,0.02985620908141136,0.4489595730304718,0.1172318563260138
1718308917991828200,36.912828125,-0.5503723673254252,-0.09178513424992561,0.5258424678333103
1718308918041598200,36.96259814453125,-0.8397440204679966,-0.36000177116096016,0.512047751236707
1718308918091369200,37.012369140625,-0.4505190774321556,-0.023038930281996727,-0.2235023197852075
1718308918141139000,37.06213891601563,-0.10365209765434265,-0.15558336042165755,-0.2634250187203288
1718308918190909200,37.1119091796875,0.37886370801925656,0.034220834031701085,0.28890345110893245
1718308918240679200,37.16167919921875,0.31045126605033874,-0.13614683854579926,0.786539230633527
1718308918290449200,37.21144921875,0.5475707539081573,-0.5398579875737428,-0.5155974065423011
1718308918340220200,37.26122021484375,1.2104290982067585,0.335374694904685,-1.4840667372532188
1718308918389990100,37.310990234375,1.3088660915613173,0.21260697789192198,-0.29472514299973845
1718308918439760100,37.36076000976563,0.49899230870008465,0.20926643529236316,0.7901879623994231
1718308918489530000,37.41053002929687,-0.6794879920601844,-0.44765959634780883,0.048570115771144624
1718308918539300000,37.460300048828124,-1.3129764494895935,-0.16631927396953106,-0.03530263791903853
1718308918589071000,37.51007104492187,-1.3560603889346121,-0.35674481519162654,-0.6264391234397888
1718308918638841000,37.559841064453124,-0.3806096749037504,-0.03593348316848278,-0.9273540609903633
1718308918688611000,37.609611083984376,0.4909259066224098,0.27556349254250523,0.10037702150642872
1718308918738381000,37.65938110351563,0.6395119555026293,0.08123919031620025,0.8291716269187629
1718308918788151000,37.70915112304687,0.26188275771439073,-0.3673696695804596,0.3098959702551365
1718308918837921000,37.758921142578124,-0.110567009875644,0.03860299463868141,-0.14096052243784069
1718308918887692300,37.8086923828125,0.4782335983097553,0.15331775357723235,-0.2661258021116257
1718308918937462000,37.8584619140625,0.4989829563498497,0.5868050321877002,0.25304551739469167
1718308918987232300,37.90823217773438,0.014355273088812827,-0.13236498191952706,0.2985788958184421
1718308919037002000,37.958001953125,-0.584987169110775,-0.1546498789638281,-0.20168460186123846
1718308919086772200,38.00777221679687,-0.31288755328655243,-0.016786884149909018,-0.4058331096179783
1718308919136543000,38.05754296875,-0.302379018753767,-0.05145604647099972,0.1347917706750333
1718308919186313200,38.10731323242187,-0.10995558171272277,-0.17782675641179083,0.44285847967639563
1718308919236083000,38.1570830078125,0.587765986174345,-0.15002397272884846,-0.08226663366779685
1718308919285853200,38.20685327148438,0.7850421239435672,-0.23648937326073646,-0.25796938366293903
1718308919335623000,38.25662280273438,0.5157411989271641,0.17733751159012318,-1.1556081053473055
1718308919385393200,38.30639306640625,1.0814847383856774,0.06984393607676029,-0.2092269800648093
1718308919435164200,38.3561640625,0.892431654560566,-0.17829729653298854,0.44749826830625533
1718308919484934100,38.40593408203125,0.5546458068609237,0.22081483426690102,0.2309599423147738
1718308919534704000,38.4557041015625,0.24811902077794074,0.12288403686881065,-1.100700603248179
1718308919584474000,38.50547412109375,-1.4800877506196497,-0.6664478932231664,0.049760494599491355
1718308919634244000,38.555244140625,-0.8619780641078948,-0.3960995049804449,0.4636006773233413
1718308919684013800,38.60501391601562,-0.2852513583421707,-0.3300765884965658,0.5885125667579472
1718308919733784600,38.65478466796875,0.07206044308245181,0.199988319337368,0.20247925937026737
1718308919783554800,38.70455493164062,0.3465262035161257,-0.08713409357368945,-0.11258680699914693
1718308919833324500,38.75432446289062,0.039797739114891734,0.2477367434620857,-0.3297659151121974
1718308919883094800,38.8040947265625,0.547549126598239,0.1907026045978069,-0.5320961214005947
1718308919932864800,38.85386474609375,0.33795185191631316,0.4108662814795971,-0.055500353425741195
1718308919982634800,38.903634765625,-0.5201935021609068,-0.11496844143867492,0.7325596570342778
1718308920032405800,38.95340576171875,-0.7472481076002121,-0.18930618180334566,0.5546402539029717
1718308920082175700,39.00317578125,-0.5416390257716178,-0.07999474321305751,-0.18817469355538485
1718308920131945700,39.05294580078125,-0.30759763018488884,-0.007241641691327095,-0.23492723851054906
1718308920181715700,39.1027158203125,-0.284428351521492,-0.020305705925822256,0.029095746102929112
1718308920231486000,39.15248583984375,-0.256951146531105,-0.042376667958497996,0.41607641734331846
1718308920281255700,39.20225561523438,0.6051286243855953,-0.5728454804182053,-0.13159881985262037
1718308920331026700,39.25202661132813,1.0918144092202187,0.041025837871432304,-0.8004407686054706
1718308920380796700,39.30179663085938,1.3175287059664726,0.11419044280350207,-0.6327521059788763
1718308920430567000,39.35156689453125,1.8833587546646593,-0.03132452806830406,-0.1892908381037414
1718308920480336600,39.401336669921875,0.5363572859764099,0.28176936144530773,-0.061369391589611764
1718308920530107000,39.45110693359375,-0.7013830130040645,-0.4135357929497957,0.12992124202921987
1718308920579876600,39.50087670898437,-1.441198340255022,-0.5803840592294931,0.45331981406658883
1718308920629646800,39.55064672851562,-1.1248246984183787,-0.11354220802783965,0.4611659975223243
1718308920679417900,39.60041796875,-0.3736462656319141,-0.07603577645421028,0.21755860894992946
1718308920729188000,39.65018798828125,0.63279638351202,0.10637246252894401,-0.2561469905413687
1718308920778958300,39.69995825195313,0.8203572560179978,0.46275955032408234,0.07652531353682279
1718308920828728300,39.74972827148437,-0.15426002112971618,-0.0011205284625291825,0.3433176167331636
1718308920878498300,39.799498291015624,0.0021159692406654356,-0.13182020751833914,-0.29286387917250395
1718308920928268300,39.849268310546876,0.20214580789851025,0.33464462706446646,-0.046057256167382
1718308920978038300,39.89903833007813,-0.16578852809369563,0.3345435047775507,0.33268238708078857
1718308921027809000,39.94880908203125,-0.5693997238785028,-0.31366613644361496,0.3800216458827257
1718308921077579300,39.99857934570313,-1.0070721792191266,-0.2505722591489553,0.011663111395388842
1718308921127349200,40.04834936523437,-0.813276869302988,-0.04365910898447036,-0.5368683042384684
1718308921177119200,40.098119140625,-0.6870540434002876,-0.09177636642158031,0.03646116030439734
1718308921226889200,40.14788916015625,0.002835515686869621,-0.08849953670799732,0.31784912121668457
1718308921276659200,40.1976591796875,0.6225444540888071,-0.20646774448454377,0.4483946326240897
1718308921326429200,40.24742919921875,1.240307519119978,-0.2363824057549238,-0.6119217916570604
1718308921376200200,40.2972001953125,1.0929600721240043,0.3748813603848219,-0.6454870843894779
1718308921425970400,40.34697045898437,2.009541833078861,0.16732991231679917,-0.1836680297859013
1718308921475740200,40.396740234375,1.0373147572696209,0.10999416015744208,-0.28943112824484707
1718308921525510400,40.44651049804688,-0.5856091004014015,-0.6175076289653778,-0.07685966005772352
1718308921575280000,40.49628002929688,-1.843045448976755,-0.24283435837328432,0.2762355465851724
1718308921625050400,40.54605029296875,-1.3436965819239615,-0.32194121283590793,0.46049642769768834
1718308921674820000,40.59582006835937,-0.5905541555881499,0.19110183304846284,0.6353156728565692
1718308921724589600,40.64558959960937,0.6830448077589273,-0.09911036257147789,0.27985256803855296
1718308921774360600,40.69536059570312,0.45044133602082725,0.08159282605946064,-0.6569334842942655
1718308921824130600,40.74513061523437,0.09347204615725203,0.2047679548293352,-0.8057169554427266
1718308921873900500,40.794900634765625,0.24539865590333937,-0.09488017765581608,0.14812296141311526
1718308921923670500,40.84467041015625,0.5248737689316273,0.16692659221291542,0.7011646940782665
1718308921973440800,40.89444067382812,0.5258616109251976,0.12772796976864337,0.34404812296479936
1718308922023210500,40.94421044921875,-0.10184125797324814,0.15184008224010467,0.1606428357683122
1718308922072980700,40.993980712890625,-1.0568003789842129,-0.4006289651036262,0.43615299068838354
1718308922122751700,41.043751708984374,-0.8386965572416782,-0.32370822250843045,0.32391061321273446
1718308922172521500,41.093521484375,-0.18612112202644346,-0.02052080998122692,-0.12217559633851051
1718308922222291700,41.14329174804688,0.4709574698269367,0.002101940715312958,0.3051077130652964
1718308922272061700,41.19306176757812,0.13213233307427727,0.018051789519190786,0.5174018256157636
1718308922321831700,41.242831787109374,-0.4837152445912361,-0.5547796623736619,0.05007730546370148
1718308922371601700,41.2926015625,0.8360019113302231,-0.09086860392689704,-1.447890969761461
1718308922421371600,41.34237158203125,1.947510032057762,0.1993207953393459,-1.1024962544932961
1718308922471141600,41.3921416015625,1.6680524546861648,0.1896048724889755,0.24204642286598682
1718308922520911600,41.44191162109375,1.6512229004383085,0.06579846007823943,0.4271050302274525
1718308922570682600,41.4916826171875,0.990512089562416,0.3059825962036848,-0.47937356212511656
1718308922620452600,41.54145263671875,-0.3254056740760803,-0.49365913097858427,-0.7209099896423519
1718308922670222600,41.59122265625,-1.4389561142861842,-0.2941004352301359,-0.09002265462204813
1718308922719992800,41.64099291992188,-1.7272960862934588,-0.6898562413394451,0.39743659880310295
1718308922769763000,41.69076318359375,-0.6786182234883308,0.3366723334997892,-0.1262706105671823
1718308922819532800,41.74053271484375,0.5120855990290641,0.1583604239195585,0.8601979026928543
1718308922869303000,41.790302978515626,-0.003597129442822188,-0.14614742355644703,0.1995049197345972
1718308922919072800,41.84007275390625,-0.9774223063647747,-0.012484803041815757,-0.23257117690369486
1718308922968843000,41.88984301757812,0.23054595468640326,0.14103402606546878,0.15459624908044933
1718308923018612700,41.93961279296875,0.6286363412231206,0.29940380233526226,0.5276841501772404
1718308923068384000,41.98938403320312,0.0489057957326062,0.09906593890786171,0.1959248692907393
1718308923118154000,42.039154052734375,-0.5863900216460227,0.033168110108375545,-0.039111528682708736
1718308923167924000,42.08892407226563,-0.5557440869590268,-0.008630465701222419,-0.3379821009241044
1718308923217694000,42.13869384765625,-0.14673309622360392,-0.09259235897958278,-0.28054420356452464
1718308923267464000,42.1884638671875,-0.2889478747725487,-0.11654138984382152,0.2199054643370211
1718308923317234000,42.23823388671875,-0.37988077610731125,0.017735563176870344,0.07919248691946268
1718308923367004000,42.28800390625,-0.8855144225180148,-0.16049042168557642,0.37480610319152474
1718308923416774100,42.33777416992187,-0.4756500115573406,-0.48450025748908515,0.04923384037688374
1718308923466543900,42.3875439453125,0.4549287105679512,0.04015373121201992,-0.638332828720659
1718308923516314000,42.437314208984375,1.4831003764390944,0.04385492381751537,-0.5545674809277057
1718308923566084900,42.4870849609375,0.8771399774044751,-0.3813964413672685,0.4308810416348278
1718308923615855000,42.536855224609376,0.3601882336437702,0.04165127629339695,0.3208461110755801
1718308923665625000,42.586625,0.5085130012392998,-0.17119360200762748,0.15102043642029164
1718308923715394800,42.63639477539063,-0.07793313450813293,-0.27349370053112504,0.30725071644335983
1718308923765164500,42.68616455078125,-0.7693383588552475,0.31530396677851674,1.0487614494353532
1718308923814934800,42.735934814453124,-0.762808080303669,-0.6845405992746353,1.026153457916528
1718308923864704800,42.785704833984376,-0.43913668267428874,-0.19418693958222866,-0.6825124544478952
1718308923914474800,42.83547485351563,0.4850654901564121,0.1997796450227499,-2.160592810767889
1718308923964244700,42.88524462890625,0.3852285668760538,0.7920482033133507,-1.4235780740208923
1718308924014014700,42.9350146484375,0.6267740544825792,0.4281675448924303,-0.058182578247040505
1718308924063785700,42.98478564453125,1.4405875148802996,0.1714852784305811,0.2550181326419115
1718308924113555700,43.0345556640625,1.25022510202229,0.08476853348612785,-0.43373540815263983
1718308924163325700,43.08432568359375,0.6618143882036208,1.2257903334677218,-1.3842501261085272
1718308924213095700,43.134095703125,-0.46677696927189827,0.6680155809313059,-0.6057026248812675
1718308924262865700,43.18386572265625,-0.7379379160065204,0.1384983701080084,1.5077467419177293
1718308924312635600,43.2336357421875,-0.33938276150226593,2.336685875254869,2.831668363791704
1718308924362406000,43.283406005859376,-0.08076455854177475,-1.0798434009194373,1.0802481823280452
1718308924412175600,43.333175537109376,-1.2860966258704662,-6.361014456328749,-3.7214725924581287
1718308924461945900,43.38294580078125,-1.3795046851471067,-3.122517688271403,-2.5092463817015287
1718308924511715600,43.43271557617187,-1.8363820455648003,0.5094967515796422,1.8538243248835204
1718308924561486800,43.48248681640625,2.5799346596479413,7.7607193412005895,3.8408170570239424
1718308924611256800,43.5322568359375,2.150489934426546,-3.3318115960925816,1.3560612657174467
1718308924661026800,43.58202685546875,1.1272937188804149,0.2925152118653059,-2.5530542515069246
1718308924710796500,43.63179663085938,1.5937375106751919,3.1101766776144504,-2.2479050373874605
1718308924760566800,43.68156689453125,-1.4971160423099994,-1.2239268776834011,0.5586110572300851
1718308924810336500,43.73133642578125,-0.5131529359996319,-0.9746715463519096,0.6900673998720943
1718308924860106800,43.781106689453125,-0.2868178952728398,0.9772750068485736,0.3159956023044884
1718308924909876500,43.83087646484375,-0.048766670389706265,0.27667057700157166,-0.6847066034913063
1718308924959646700,43.88064672851562,-0.5186942035138606,-0.2692687763124704,-0.11295827066004276
1718308925009416700,43.93041674804687,-0.1666647264063358,-0.9337819020807743,0.23693302537500857
1718308925059187700,43.98018774414062,-0.04348259250693954,0.4180190758436918,-0.2960521538197994
1718308925108957400,44.02995751953125,0.7330149995863438,-0.3135954092949629,0.19684198413565754
1718308925158727700,44.079727783203126,0.5850549736499786,0.4881418288618326,-0.13404036778584122
1718308925208497400,44.129497314453126,0.16859483595238997,-0.1956844846636057,-0.21336437213048337
1718308925258267600,44.179267578125,0.017914445141423492,0.30281799469292164,-0.1502118965163827
1718308925308037600,44.22903759765625,-0.5393675006430596,-0.25075404545664787,0.23312603430747986
1718308925357807600,44.2788076171875,-0.8118798619866371,-0.15213351222872734,0.37517756685242054
1718308925407577600,44.32857763671875,0.11831658282279968,-0.8409381986886263,-0.4312919605232775
1718308925457347600,44.37834765625,0.5313572857320308,-0.131356097137928,-0.4389611799769103
1718308925507118600,44.42811865234375,1.0433166280329227,0.1701870553135872,-0.40303997176811096
1718308925556888600,44.477888671875,1.430562379950285,0.09742226335406302,0.3299247589357197
1718308925606658800,44.527658935546874,1.29244920976758,0.23284429475665092,0.18017565762549637
1718308925656428500,44.577428466796874,-0.2682499546587467,-0.2171902140289545,0.4836046238236129
1718308925706198500,44.627198486328126,-0.350498029756546,-0.10568564930856228,-0.12466361376196146
1718308925755968500,44.67696850585938,0.36311902639865873,0.42855274481773376,-0.7665741548389196
1718308925805738500,44.72673852539062,0.256675252199173,-0.3211743201166391,-0.7128608309604227
1718308925855508500,44.776508544921874,-0.010166004705429077,0.18913433236777782,-0.6337042921371757
1718308925905278500,44.826278564453126,-0.1239244949656073,-0.041866964870691296,0.2684913621991873
1718308925955048400,44.87604833984375,0.09240238936543464,-0.1501011296182871,0.9861253989107907
1718308926004819500,44.9258193359375,-0.35016017610430716,-0.1825157910108566,1.275290861956775
1718308926054589400,44.97558935546875,-0.5765092636227608,-0.40685996844768524,0.1251613341510296
1718308926104359400,45.025359375,-0.2866881131470203,-0.3626683600217104,-0.615981734572351
1718308926154129400,45.07512939453125,-0.17248539538383484,-0.34625966153442855,-0.17828341413810847
1718308926203899400,45.1248994140625,-0.43571079987883565,0.35202596997618674,0.007458499312400817
1718308926253669400,45.17466943359375,0.24069383921325205,-0.10682195986211299,-0.011777239294350147
1718308926303439400,45.224439453125,0.6034995618790387,0.012873510098457336,-0.250329536434263
1718308926353209600,45.274209716796875,-0.12441899135112762,0.2888461679637432,0.0607350392088294
1718308926402979300,45.323979248046875,-0.4468494490087032,-0.19727906037867068,0.17847031501233576
1718308926452750300,45.37375024414062,-0.28531448670625686,-0.3352221346914768,0.12578063509315252
1718308926502520600,45.4235205078125,-0.07076455805301665,-0.019806524232029915,0.23208105529919265
1718308926552290600,45.47329052734375,0.7622644749462604,-0.13374153096973895,-0.05070274388566613
1718308926602060500,45.523060546875,1.4214298099458216,0.06041968964934349,-0.11595029208287597
1718308926651830500,45.57283056640625,1.2319114466965198,0.0004693710774183273,-0.48964682659730313
1718308926701601000,45.62260107421875,0.36433775453865525,0.4440922592550516,0.35197876983359455
1718308926751371000,45.67237109375,-0.13044483664506115,-0.3573690845698118,0.635961569544673
1718308926801141000,45.72214111328125,-0.6212474000155925,-0.2419862171113491,-0.7869184392094611
1718308926850911000,45.771910888671876,0.13098492573797701,0.3279600347340107,-1.213929653673619
1718308926900682000,45.821681884765624,-0.021530859240028073,0.32187399281859397,0.1798516863681376
1718308926950452000,45.871451904296876,0.20567279471457003,-0.41850364449024197,0.8449646777257322
1718308927000222000,45.92122192382813,0.03332125484347343,0.12089549340009689,0.014186492393165826
1718308927049992200,45.9709921875,-0.6737842274606227,0.1836626229584217,0.2956106936626136
1718308927099762000,46.020761962890624,-0.388482600235939,-0.466525624859333,0.5046450737647712
1718308927149532200,46.0705322265625,0.07451134793248493,-0.29707915877997876,-0.32878800999075175
1718308927199302000,46.12030200195313,-0.04000233090943656,-0.12547639144957065,-0.14407441667467355
1718308927249072000,46.17007202148437,-0.16796822848664597,-0.3635650166004896,-0.16496303705498574
1718308927298843000,46.2198427734375,0.4296744423240423,0.6096487321585417,-0.3531003212094307
1718308927348613000,46.26961303710937,0.7496955007523298,0.19956921714246273,0.12217793442606925
1718308927398382800,46.3193828125,0.3081658219942823,-0.08831716587841511,0.19539938411191105
1718308927448153000,46.36915307617188,-0.4292898269206285,0.06461246516406535,0.24010317984372376
1718308927497923000,46.41892309570313,-0.17227438298165798,-0.11748656173944473,0.12608151773586868
1718308927547693000,46.46869311523437,0.08999006752669811,-0.27264497474730015,0.162262984316051
1718308927597463000,46.518463134765625,0.2016173818439245,-0.21315818203389644,0.38208983045890926
1718308927647233000,46.56823291015625,-0.21389643318057058,-0.010125088173151015,0.0984562825769186
1718308927697003500,46.61800341796875,0.6931897696763276,-0.3522948500454426,-0.4066122772969305
1718308927746773800,46.667773681640625,1.3061731992155312,0.9590256489306688,-0.35092297717034815
1718308927796543500,46.71754345703125,0.5496165439894423,-0.4227899435073137,0.47384924574568865
1718308927846313700,46.76731372070312,-0.3233014318058267,-0.3665712126791477,0.3484564409263432
1718308927896083700,46.817083740234374,-0.2736837066778913,0.44457039816081523,-0.0891711523592472
1718308927945853700,46.866853759765625,-0.543600681233406,-0.0025485154390335082,-0.2374821836903691
1718308927995623700,46.91662377929688,0.17959314502980558,-0.13632161059081555,-0.5376201455190778
1718308928045394700,46.966394775390626,0.10995793806659057,0.1253138943642378,-0.24972587145268915
1718308928095164400,47.016164306640626,-0.08994856647253036,0.18780337602496147,0.16820961776077747
1718308928144934700,47.0659345703125,-0.35030163040161133,-0.45911564086377615,-0.1679202794253826
1718308928194704600,47.11570458984375,-0.6550713436841964,-0.09163491212427616,0.36298838575631376
1718308928244474600,47.165474609375,0.006319284415710717,-0.21801205180585384,0.541329959822446
1718308928294244600,47.21524462890625,0.3393038145145401,0.2818365814626217,0.40916853765100236
1718308928344014600,47.2650146484375,0.13857782855238765,-0.33660978965759275,-0.26801205424964425
1718308928393784600,47.31478466796875,-0.9281564634144306,-0.09934884750247001,-0.2084728006966412
1718308928443555600,47.3645556640625,0.1726765888406895,-0.21231997764408586,-0.5297128795258701
1718308928493325800,47.414325927734374,0.3865607287952676,0.26439970897138115,0.01744286384060979
1718308928543095600,47.464095458984374,0.32684531495776026,0.19776245998144149,0.26323753332421185
1718308928592865800,47.51386572265625,-0.0799251851081848,-0.1354828216791153,0.354643020606786
1718308928642635500,47.56363549804688,0.14104631929146125,-0.08252455395162105,-0.19722499210387467
1718308928692406000,47.613406005859375,0.6512859799265861,0.13834931702613829,0.10627031732872128
1718308928742175700,47.66317578125,0.26468672748552635,-0.04984335057735443,0.09723185534849763
1718308928791947000,47.712947021484375,-0.27403789041042326,-0.3180518041819334,0.1379686471454799
1718308928841716700,47.762716796875,0.461741897714138,-0.26169980236291884,-0.09127966894581914
1718308928891487000,47.81248706054687,0.6685305447161197,-0.25004326683878897,-0.16857406715899706
1718308928941256700,47.86225659179688,0.1487339511846192,0.5332452914357185,0.33300387412011623
1718308928991027000,47.91202685546875,0.5610276168525219,0.04814589900970459,0.1790025221928954
1718308929040796700,47.961796630859375,-0.38819443094432354,0.012765958070755003,-0.14006196616292
1718308929090567000,48.01156689453125,-0.46248190242648124,-0.2952811694473028,-0.5401140081614255
1718308929140336600,48.06133666992187,-0.11078034209907055,0.24418285037279128,-0.7355930333808064
1718308929190108000,48.11110791015625,-0.250640081954468,-0.054718263137340545,0.17353198182731866
1718308929239878000,48.1608779296875,-0.28789982702434064,-0.14283318444192408,0.5017645498923957
1718308929289647900,48.21064794921875,0.004146607418591157,0.1366279000610113,0.24196239784434437
1718308929339417900,48.26041796875,-0.016315759506821632,-0.15251169789135455,0.06922536578699946
1718308929389187800,48.31018774414063,-0.07174070960879325,0.06362286960482597,-0.18743615014776585
1718308929438957800,48.35995776367187,0.18285948988199233,-0.15659458329081535,-0.3097562695235014
1718308929488727800,48.409727783203124,-0.19990997513784095,-0.15900924321711063,0.13956804516613483
1718308929538498000,48.459498046875,-0.057387774607539174,-0.08246317915320396,0.2378290974318981
1718308929588268800,48.509268798828124,0.3671300156056881,-0.10934943251311778,-0.17068784444257615
1718308929638038800,48.559038818359376,0.2715255970622413,0.4160527442067861,-0.4320423404991626
1718308929687808800,48.60880883789063,-0.03515782262086868,-0.1690922458142042,0.434295526253432
1718308929737578500,48.65857861328125,-0.3524111699014902,-0.13677110792398453,0.39923648783192034
1718308929787348500,48.70834838867187,-0.28690555528998374,-0.05384381839036941,-0.12459113304764032
1718308929837118500,48.758118408203124,0.27521044132113454,-0.20649872414469717,-0.05237886040434241
1718308929886888400,48.807888427734376,0.5451888272076845,-0.5516729285299777,-0.33762159704864025
1718308929936658400,48.85765844726563,0.7900643360197543,-0.019269348615407942,-0.12828881852179766
1718308929986429400,48.907429443359376,0.3703834644436836,0.792099641239643,0.03004106412902474
1718308930036199700,48.95719970703125,0.4582604853391647,-0.4073129729121923,-0.42530514119863505
1718308930085969400,49.00696948242187,0.646129327815771,0.2658107448130846,-0.012776917856186627
1718308930135739600,49.05673974609375,0.12619243989759124,-0.22756956922411917,0.6649509326636791
1718308930185509400,49.10650927734375,-0.16228198127746582,0.06088263098597526,0.21324176866412162
1718308930235279600,49.15627954101563,-0.3950181394845247,-0.014578560450673102,-0.19022417343109846
1718308930285049300,49.20604931640625,-0.32415947340726853,0.0263122528642416,-0.39358927572518587
1718308930334819600,49.255819580078125,-0.6826923410594463,-0.24211715001463888,0.033569968907535074
1718308930384590300,49.30559033203125,-0.18339140480160712,0.05453413874208927,-0.43652138560935855
1718308930434360600,49.355360595703125,0.36604572750031944,0.1591723248243332,-0.7799857173368334
1718308930484130300,49.40513037109375,0.18381342960596084,-0.06438157901763916,-0.11835238478854299
1718308930533900500,49.45490063476562,-0.10242343264222145,-0.22979835118949413,0.5310458816953003
1718308930583670300,49.50467016601562,-0.363038362377882,0.1240495735168457,0.24685250797346234
1718308930633440500,49.5544404296875,0.10572598131895064,-0.4640986899733543,-0.26651933147385715
1718308930683210500,49.60421044921875,0.07268529698252678,-0.012688801181316375,-0.17820128881260752
1718308930732980500,49.65398046875,0.150989018368721,-0.1383539932012558,0.07471767959296703
1718308930782750700,49.703750732421874,-0.05197627095282077,0.10775018062293529,0.11542436851263045
1718308930832521700,49.75352172851562,0.14841887561976908,0.06552373479008675,0.2805054789893329
1718308930882291500,49.80329150390625,0.019852703744603784,-0.09261164820194244,0.3317142727009952
1718308930932061700,49.853061767578126,-0.3846083891510963,0.1519125629544258,0.3181302762456238
1718308930981831400,49.90283154296875,-0.39922845065593715,-0.45583238140940663,0.5646132202543318
1718308931031601700,49.9526015625,-0.10436638340353965,-0.32974282649755476,-0.1351689334243536
1718308931081371600,50.00237158203125,0.7708581157684326,0.2236778224825859,-0.6661530019298195
1718308931131141600,50.0521416015625,0.5956769054293632,0.09731646489202976,-0.3398969946347177
1718308931180911600,50.10191162109375,1.124658109679818,-0.1484831730276346,-0.4963358028419316
1718308931230681600,50.151681640625,1.1243518202096223,0.1978133133858442,-0.07283274262920021
1718308931280452600,50.20145263671875,0.8508154495805501,0.6235363877356052,0.10824337096735834
1718308931330222600,50.25122265625,-0.4041583082735538,-0.154901807898283,0.06423617919757962
1718308931379992600,50.30099267578125,-0.8999211335331201,-0.041972178810834884,-0.181856742580235
1718308931429762600,50.350762451171875,-0.5356272181361913,-0.08827624934613704,-0.10823781800940632
1718308931479532800,50.40053271484375,0.25897709940075875,-0.18285130657553672,-0.14350129296183586
1718308931529302500,50.45030249023438,0.6362602602303028,0.389049586468935,-0.6658899670794606
1718308931579072800,50.50007275390625,0.22627076158523557,-0.11825111637115478,-0.3909863997504115
1718308931628842500,50.549842529296875,-0.46952772928476333,0.05970365033447742,0.4558410031072795
1718308931678612700,50.59961279296875,-0.3895312325060367,-0.6819026519864797,0.6319239845916629
1718308931728382500,50.64938256835938,-0.49086628538966176,-0.14556348618865012,-0.1287022216282785
1718308931778153500,50.69915356445313,-0.4580220004081726,-0.24368659128844736,0.2819605001032352
1718308931827923200,50.74892309570313,-0.5181424148499966,0.09452128121554851,0.4771311900258064
1718308931877693400,50.798693359375,-0.3584153787523508,-0.270088276001811,-0.0008352817803621292
1718308931927463200,50.84846313476562,0.45593584178388114,0.21811609670221804,-0.11619915227741003
1718308931977233400,50.8982333984375,-0.030873861691355704,0.07798515695631504,0.14407032502144573
1718308932027003400,50.94800341796875,-0.6355459744811057,-0.08304244034588336,0.16316183285191654
1718308932076773400,50.9977734375,-0.6318167248249054,0.008624620482325554,0.18041458094790577
1718308932126543400,51.04754345703125,-0.031437925314903255,-0.6263496915906668,0.00879646991789341
1718308932176313300,51.097313232421875,0.04555295077390037,0.42596506641209125,-0.3776797589316964
1718308932226083300,51.14708325195313,0.9936579863727092,-0.3676128306865692,-0.3872093654297292
1718308932275853300,51.19685327148437,1.174351238131523,-0.15363164183199404,-0.7485350786708295
1718308932325623300,51.246623291015624,0.9398948320031165,0.42757250160872934,-0.4010467521242797
1718308932375394300,51.29639428710937,0.40869653622508045,0.18737316791415212,0.7682324434399604
1718308932425164500,51.34616455078125,0.10266717827022075,-0.027242227190732955,0.07951835787296295
1718308932474934300,51.395934326171876,-0.5193523751616478,0.025589199286699293,-0.5652117706693709
1718308932524704500,51.44570458984375,-0.45271278808414933,-0.020588614520430565,-0.6723993489734829
1718308932574474200,51.49547412109375,-0.7620388494968414,-0.07487140884995461,0.5743627531133592
1718308932624244500,51.545244384765624,0.37501287781000137,-0.08815349974930285,0.20328706862181423
1718308932674014200,51.59501416015625,0.5127952086031436,0.05402618921995163,-0.5106039821691811
1718308932723785000,51.64478491210937,-0.044853853460680694,0.028366262784600256,-0.5020189630448818
1718308932773555000,51.694554931640624,-1.5043500852167606,-0.1173655657082796,1.181363747242093
1718308932823325000,51.744324951171876,-0.4312064741969108,-0.6093401046007871,0.5980863046586513
1718308932873095000,51.79409497070313,-0.28334464793801306,-0.07786591449081898,-0.2494622520804405
1718308932922865000,51.84386499023437,0.44264556757807727,0.08932020544111728,-0.2700213482454419
1718308932972635100,51.89363525390625,0.18747721281051635,-0.13122224162518978,-0.15397577909454702
1718308933022404900,51.94340478515625,0.038678982484340665,0.2853898900300264,0.06087517833188176
1718308933072175900,51.99317578125,0.6432300992429256,0.12587386633455752,0.4049614413499832
1718308933121946000,52.04294604492188,0.046899689207738265,0.15301321767270565,0.39665553142800924
1718308933171716000,52.09271606445313,-0.6525087997198105,0.013169862696528435,0.24663404291719196
1718308933221486000,52.14248608398437,-0.3801297458996996,-0.1993997057944536,-0.06716814099624753
1718308933271256000,52.192256103515625,-0.38182840304374693,-0.45450727028548715,-0.17694792775064705
1718308933321026000,52.24202612304688,-0.14718725146558134,0.08310966036319732,-0.6469665092922747
1718308933370796000,52.29179614257812,0.3482114166567102,-0.4318833505451679,-0.6038879766747355
1718308933420566000,52.34156591796875,1.463462779033184,0.308552154430747,-0.7834981093719601
1718308933470336000,52.3913359375,1.1749942122101784,-0.3171089703738689,0.4212818770319223
1718308933520106000,52.44110595703125,0.8860510136127472,0.7314256845682859,0.8586630943410098
1718308933569876000,52.4908759765625,0.10535656348466872,-0.26145488769114017,0.4528687092982232
1718308933619646000,52.54064599609375,0.09519523495435714,0.03569324467182159,-1.1080880831509827
1718308933669416000,52.590416015625,-0.5698831234812736,0.10303308897316456,-0.3545119415730238
1718308933719185700,52.640185546875,-0.7605027259707451,0.03971592431664467,0.8769124522589147
1718308933768955600,52.68995556640625,-0.6486591385543347,-0.5293775100916623,0.37057270340546966
1718308933818725600,52.7397255859375,0.1992003838300705,0.2958037320166826,-0.26053806510716676
1718308933868495600,52.78949560546875,0.23645079481601713,-0.05162555781900882,-0.398287808804959
1718308933918265600,52.839265625,-0.36462592383027076,0.023363924452662468,0.6487295734420419
1718308933968035600,52.88903564453125,-0.3026993550156243,-0.3465449082165956,-0.20401275254786014
1718308934017805600,52.9388056640625,0.4177063566327095,-0.021113515177369115,-0.36088746795430776
1718308934067575800,52.988575927734374,0.46274026110172267,0.11131868675947189,0.1593229853413999
1718308934117345500,53.038345458984374,-0.09166004656553269,0.16067688416838646,0.34866409232765433
1718308934167115800,53.08811572265625,-0.02489478728175163,-0.20113222867548464,0.12901596375256777
1718308934216885500,53.13788549804688,0.24179566297531127,0.040349546045064924,-0.01513502528965473
1718308934266656500,53.187656494140626,0.015187047737836837,-0.0790630153208971,-0.12644509035125373
1718308934316426500,53.23742651367188,-0.13471242182850837,-0.07886778500974177,0.20926438946574924
1718308934366196700,53.28719677734375,-0.21012274159444494,0.018380290821194648,-0.09165566265136003
1718308934415966500,53.336966552734374,-0.3310077318668365,0.07778232786059379,-0.13413374515771864
1718308934465736700,53.38673681640625,-0.21682371880412102,-0.2577449272572994,0.23408216598853468
1718308934515506400,53.43650634765625,-0.25765257279872894,-0.014593758019804953,-0.37433643985316156
1718308934565276700,53.48627661132812,0.26269464035285633,-0.18687983143925666,-0.15886486631035804
1718308934615046400,53.53604638671875,1.2924305050671099,0.12772212454974652,-0.40432548153400416
1718308934664816600,53.585816650390626,0.771116474443674,-0.3280231630980968,-0.16319003603309393
1718308934714587100,53.63558715820312,0.255101134750247,0.40430502326786516,0.5983933247812092
1718308934764357000,53.685357177734375,0.14675006562471388,-0.4136076891422272,0.174730543962121
1718308934814127000,53.735127197265626,-0.09030454943650401,0.15005436786711215,-0.35043826239332554
1718308934863897000,53.78489697265625,-0.36816286578476426,0.42120355109870433,-0.311816855315119
1718308934913667300,53.83466723632812,-0.3268471050560474,-0.47031449574828144,-0.10921879187077284
1718308934963437000,53.88443701171875,0.39184593918919564,0.25478900006115435,-0.2766021879404783
1718308935013207300,53.93420727539063,0.40807109780311585,-0.10357669433057308,-0.016070260313153267
1718308935062977000,53.98397705078125,-0.1388601708914153,-0.05444821402430534,0.2286789917707443
1718308935112747300,54.03374731445312,-0.5120271468400955,-0.2659323253661394,0.45925519546493887
1718308935162517000,54.08351708984375,-0.4233341333866119,-0.5476163466155529,-0.6634222617916763
1718308935212287200,54.13328735351563,-0.26785598690509793,0.09023673576414584,-0.3456041202351451
1718308935262057000,54.18305688476563,0.07089198382496834,-0.016404022312164306,0.4577588194273412
1718308935311827200,54.2328271484375,-0.25345687467455863,0.13272212479412554,0.814440652385354
1718308935361597200,54.28259716796875,-0.10982582698636688,-0.10705343053042889,0.3207210233911872
1718308935411367200,54.3323671875,0.09400982456207276,-0.3509539568305015,-0.30708325092196465
1718308935461137200,54.38213720703125,-0.1386018304824829,0.2297293776065111,-0.18102715988829732
1718308935510907100,54.4319072265625,-0.4848562313199043,-0.20839608219861983,0.44782399312928317
1718308935560677000,54.48167700195312,-0.07133154428601264,-0.27216625131964683,0.18653993196040392
1718308935610447000,54.531447021484375,0.21765138353360816,0.22543255719542502,-0.10341025172248482
1718308935660217000,54.58121704101563,1.1817033544600009,0.028599487018585203,-0.2779563790284097
1718308935709987000,54.63098706054687,0.3274152968654409,-0.19511808295249938,-0.42258974476009603
1718308935759757300,54.68075732421875,0.07456511937975883,-0.47112464308738705,-0.6650624302141368
1718308935809527000,54.730527099609375,0.5678945800125599,0.40000060407221316,-0.06745119572132825
1718308935859297300,54.78029736328125,0.8493792792975902,0.18505261601209638,0.5825013436444103
1718308935909067300,54.8300673828125,-0.008325934363272973,-0.14679624285399914,0.2794602077201009
1718308935958837200,54.879837158203124,-0.8392249650299548,-0.08559913909137248,-0.40331192057728765
1718308936008607200,54.929607177734376,-0.22353987531661987,-0.12067045247256755,-0.5559384770199656
1718308936058377200,54.97937719726563,0.4343792590141296,0.19040800556540488,-0.08861658721640706
1718308936108147200,55.02914721679687,0.3610989187479019,0.13399287538230417,0.07333031688779593
1718308936157917200,55.078917236328124,0.6512076539933681,0.12399755106866359,0.2823122361503541
1718308936207687200,55.128687255859376,0.01043842843864113,-0.680326196449995,-0.036445670474320645
1718308936257457200,55.17845703125,-0.5720072760283946,0.20936288140416143,0.13781009558290241
1718308936307226000,55.22822607421875,-0.4663432540297508,-0.504607225972414,0.1247759880952537
1718308936356996400,55.27799633789063,-0.5985725903382525,0.08778934261202812,0.539767240550369
1718308936406766000,55.32776611328125,-0.045982017240393906,-0.2899520833790302,0.031221213824301958
1718308936456536300,55.377536376953124,0.10521744727492331,0.13035773375034332,-0.2820082847677171
1718308936506306000,55.42730615234375,0.562948355782032,0.5773790321946144,0.07497516148537398
1718308936556076300,55.477076171875,0.30614447223450986,-0.3147475019395351,0.4309269266031682
1718308936605846300,55.52684619140625,-0.341456681699492,0.02490998485088348,0.3995565135665238
1718308936655616300,55.5766162109375,-0.4342822283804416,0.10474281550049781,0.142901427372545
1718308936705385700,55.6263857421875,-0.43027240821719165,-0.41137481552362437,0.0988971582122147
1718308936755155500,55.676155517578124,-0.21313889281153678,-0.5221119030028581,-0.3051939300440252
1718308936804925700,55.72592578125,0.30043838781369847,0.27652678461670877,-0.5593894942566752
1718308936854695700,55.77569580078125,1.1793372098505497,-0.14395897360146045,0.011230419066548347
1718308936904465700,55.82546557617187,1.3979483965933321,0.5358668721109628,-0.08937690406441688
1718308936954235600,55.875235595703124,0.40687633506059645,0.07160276244282722,0.129186205752939
1718308937004005600,55.925005615234376,-0.1420551766735967,-0.4989858789592981,-0.3341897229038179
1718308937053775600,55.97477563476563,0.32348259705901145,0.5844447327971458,-0.46570247190818187
1718308937103545600,56.02454565429687,0.05481529377102851,-0.019110943183302878,0.7903370154812932
1718308937153315600,56.074315673828124,0.099749829518795,-0.35201077240705486,-0.02884162521138787
1718308937203085600,56.12408544921875,0.19565818117856978,0.5440601154386997,-0.4845430737175047
1718308937252855600,56.17385546875,-0.29176176314949986,-0.4442646932125091,-0.42617724785804745
1718308937302625500,56.22362548828125,-0.2630149766147137,0.10805237843990326,-0.3037203503601253
1718308937352395500,56.2733955078125,0.669113897562027,0.41081542807519433,-0.02366436870396137
1718308937402165800,56.323165771484376,-0.09115853591733612,-0.531987400329113,0.3752124920353293
1718308937451934500,56.3729345703125,-0.3972551047563553,0.13954992498755453,-0.15196370861977337
1718308937501704700,56.42270458984375,0.13616905037760735,-0.2920797430574894,0.10176116934120655
1718308937551474700,56.472474609375,0.41998716104626654,-0.3400865258574486,0.013059826450794934
1718308937601244700,56.52224462890625,0.5436316608935594,0.4125853603571653,-0.15320201824307442
1718308937651014700,56.5720146484375,1.2172481305718421,0.2605681679844856,0.016200462564080954
1718308937700785000,56.621784912109376,0.17118074252605436,0.02098141323029995,0.46170931061878795
1718308937750555100,56.67155517578125,-0.4444938257932663,-0.350037426507473,1.1724755073875188
1718308937800324900,56.72132495117187,-0.21555705986917018,0.04897358200550079,0.6942692354761064
1718308937850095000,56.77109521484375,-0.5461421824097633,-0.07805529958307743,0.3791067229948938
1718308937899864800,56.82086474609375,-1.031156234639883,-0.426877505081892,0.11111410409808158
1718308937949635000,56.87063500976563,-1.3586556661248206,-0.4612900622934103,0.49062794658914205
1718308937999404800,56.92040478515625,-0.6479401766300201,-0.4002028486460447,0.16146891132891178
1718308938049175000,56.970175048828125,-0.6951058324307203,-0.34931554197371006,-0.45097646581083534
1718308938098945000,57.01994506835938,0.04331895377729088,-0.6054530340343713,-0.6240185452293604
1718308938148714000,57.0697138671875,0.3024824060630053,0.6649141077846288,-1.2811352040708064
1718308938198484000,57.11948388671875,2.371882860842347,1.998249454692006,0.22198833502568302
1718308938248254000,57.16925390625,0.5265063751021399,-0.9021651130676269,-0.6923784532934427
1718308938298024000,57.21902392578125,0.6173954007625579,0.10949965463876724,-2.934652352926135
1718308938347794200,57.268794189453125,1.8919594097495078,0.0011497545570135115,-2.2787565411165356
1718308938397564000,57.31856396484375,3.9311487775951623,1.4763468105256556,0.6748555099539458
1718308938447334100,57.36833422851562,2.6727041287600994,1.5527923368245362,1.954616503062099
1718308938497104000,57.41810375976563,-0.21432313416004178,-0.04487140738368034,0.22167203561812637
1718308938546874000,57.4678740234375,-2.334774488675594,3.263866771635413,-1.6448413827076553
1718308938596643800,57.517643798828125,-1.0320479227825998,1.846143414992094,6.398494584417342
1718308938646414000,57.5674140625,-0.622302169765532,-4.944406951972842,-2.461852762363851
1718308938696183000,57.61718310546875,-2.6784163689270613,-1.6132137800395487,-2.489389588586986
1718308938745952800,57.66695288085938,-3.1496400884747504,-4.3630987636357546,-1.204418751876056
1718308938795723000,57.71672290039062,-2.1468493859671054,-2.0107067852050067,-0.21135025582909583
1718308938845492700,57.76649267578125,7.3627522887825965,16.63912169237137,10.591115785360335
1718308938895263000,57.816262939453125,-5.43581976532936,-8.091435981166363,-1.8329981022149324
1718308938945033000,57.86603295898438,1.6759470073282718,1.4719441916525362,-2.379079786609113
1718308938994803000,57.91580297851562,0.8947978722352534,2.980075548973679,-4.481918035283685
1718308939044573000,57.96557299804687,-0.9963454718910157,-1.130740059942007,-0.5677738762423395
1718308939094343000,58.015343017578125,-2.08037653375864,-1.566558411848545,0.790988172866404
1718308939144111900,58.06511181640625,1.0296632926683873,1.7621663241446017,0.5069444367483258
1718308939193882000,58.114882080078125,1.9152876783668993,-0.07317103467285632,-0.5888387299723923
1718308939243651800,58.16465185546875,-0.32649281172566114,-0.27923662809729577,-1.7632095495872198
1718308939293422000,58.21442211914062,-1.8115432262539863,-1.03535836250484,-0.31348171978741884
1718308939343191800,58.26419189453125,-0.7491910583615302,0.4340513422340154,1.1886759699515999
1718308939392962000,58.313962158203125,1.1329530598163604,-0.1520125161975622,0.3894175429984927
1718308939442731800,58.363731689453125,-0.021464812833070755,0.057617491710186,-0.24900398691892622
1718308939492502000,58.413501953125,-0.2660848855793476,0.4338754011452198,0.17885639172047377
1718308939542271700,58.46327172851562,-0.5063081481387839,-0.07162848140597343,0.2793834892220795
1718308939592040700,58.51304077148438,-0.43479076242446896,-0.06687573392093181,0.1630157023794949
1718308939641811000,58.56281103515625,-0.6189221719384193,-0.011478256347775459,0.1425280640155077
1718308939691581000,58.61258081054687,-0.426329223549366,-0.26040625542104245,-0.136592098095268
1718308939741351000,58.662350830078125,0.27133626676891,0.9388210652917623,0.3902935951806605
1718308939791121000,58.71212084960938,2.122775413548946,-0.34123277328312396,0.49451253293752667
1718308939840891000,58.76189086914062,-1.0557038159191607,-1.2307798123180866,-0.892883636111766
1718308939890661000,58.8116611328125,-1.103102695953846,-0.2643283973008394,-0.5488261607967316
1718308939940430800,58.861430908203126,1.886423987454176,0.7163742459088563,-0.2965643411256373
1718308939990200000,58.911199951171874,0.686021777743101,-0.5516232441693544,-0.38090237424001094
1718308940039970000,58.960969970703125,-0.20101707786321638,0.14916414102911948,0.3603589140355587
1718308940089740000,59.01073999023438,0.61642158729434,0.295424377310276,0.8299184997633099
1718308940139510000,59.06051000976562,6.679879914981126,0.7719312979578972,-0.6627031537368894
1718308940189280000,59.110280029296874,0.48834465795755383,-0.24330957466959952,0.07244944240003824
1718308940239050000,59.160050048828126,-0.7020353394329547,0.6362047306507825,-0.31154768298491836
1718308940288819200,59.209819091796874,-0.5052665666639805,-0.23144027317762372,0.3280611570209265
1718308940338589000,59.2595888671875,0.642940176385641,-0.5119365459471941,0.2837058824658394
1718308940388359200,59.30935913085938,0.701729049962759,0.15783727682828902,-0.270077170085907
1718308940438129000,59.35912890625,0.22835520317647603,-0.17666648046076297,-0.3750684073895216
1718308940487899100,59.408899169921874,0.0004968436062335968,-0.1288245328336954,-0.10501534883156419
1718308940537668900,59.4586689453125,0.42980245261788363,-0.6581874298781156,0.24681466018110512
1718308940587439000,59.50843920898438,0.898274535369873,0.3779945239692926,-0.5881443179674446
1718308940637208000,59.5582080078125,0.4070166203141212,0.5478916564255952,0.6972875603839754
1718308940686977800,59.607977783203125,0.40841830380558963,-0.30085107853412624,0.04992839851230382
1718308940736748000,59.657748046875,-0.20886136162281035,-0.07681845126450061,-0.4740139347881078
1718308940786518000,59.70751806640625,0.05721534065008163,0.3908499138891697,0.22629662667885422
1718308940836288000,59.7572880859375,-0.5910860705077647,-0.052172670307755464,1.1398930882126093
1718308940886058000,59.80705810546875,-0.8779249903023243,0.07977671654820442,1.0622292721651494
1718308940935827000,59.856826904296874,-0.24285010393168777,-0.4745914424151182,0.05473199940174818
1718308940985597000,59.906596923828126,0.31135142976045604,0.3147796506434679,-1.217084902834147
1718308941035367000,59.95636694335938,1.2501613891363144,-0.016075521010160444,-0.397897202052176
1718308941085137000,60.00613696289062,0.6094634021868929,-0.12518120789527892,0.16313596775829792
1718308941134907000,60.055906982421874,-0.14558803610801696,-0.7105372103184461,-0.5819757123351097
1718308941184676900,60.1056767578125,0.6764648448467254,0.07843523881137371,-0.2293358482442796
1718308941234446000,60.155446044921874,0.39900516329407687,-0.3434662314236164,-0.07273191260322928
1718308941284215800,60.2052158203125,-0.10242226359844207,0.015305121159553526,-0.1285686583764851
1718308941333986000,60.25498608398438,0.13549334307312966,0.17874445577859877,-0.26602453369423745
1718308941383756000,60.30475610351562,-0.17232874351739882,0.1057195515781641,-0.2859149368174374
1718308941433526000,60.354526123046874,-0.3088181118905544,0.4129121080935001,0.280135038241744
1718308941483295000,60.404294921875,-0.8118167336225509,-0.266429168972373,1.23088984856382
1718308941533065000,60.45406494140625,-1.0307529145359993,-0.2219260103791952,-0.366658306440711
1718308941582835000,60.5038349609375,0.15346739118099212,0.29605390738546844,-0.7122903375960886
1718308941632605200,60.55360522460938,1.963010383528471,-0.4668173012822866,-0.6912317674763501
1718308941682375000,60.603375,0.9726724814891815,0.8935767329424619,0.0012314414910972117
1718308941732143600,60.6531435546875,-0.406599271684885,-0.8005442289799451,0.9018051937140524
1718308941781913600,60.70291357421875,-0.2592763928745873,-0.3863438346415758,-0.1489313551865518
1718308941831683600,60.75268359375,0.5613911894679069,0.165075411388278,-1.0607280738219618
1718308941881453600,60.80245361328125,-0.28395956496596336,-0.2613099262624979,0.4687466619096696
1718308941931223600,60.8522236328125,-0.36381928362250326,-0.012698738053441046,0.7533382411688566
1718308941980992500,60.90199243164062,-0.1648655680298805,0.0038449849903583523,0.210692522572726
1718308942030762800,60.9517626953125,-0.419835185354948,0.41966859661638733,-0.27325886886194345
1718308942080532500,61.001532470703125,-0.621515111041069,-0.13451134629845618,0.0539423103287816
1718308942130302700,61.051302734375,-0.5685585968792438,-0.033743864169716836,0.4479531724669039
1718308942180072400,61.10107250976562,-0.6390940223515034,0.0009428338080644607,0.44201077680587764
1718308942229841700,61.15084155273438,-0.16568740580677985,-0.13190437867045401,-0.067272624284029
1718308942279611600,61.20061157226562,0.2867418891608715,-0.09834405437409877,-0.2623193955659866
1718308942329381600,61.250381591796874,0.5959235736668109,0.10532383025884627,0.6195034789577126
1718308942379151600,61.300151611328126,0.7247007602274418,-0.1311199502944946,0.01918678489848971
