time,seconds_elapsed,z,y,x
1718308881161471500,0.082471435546875,-0.021613143384456635,0.11833217740058899,0.0743066594004631
1718308881211242500,0.132242431640625,-0.013991737738251686,-0.13566479086875916,0.10787530988454819
1718308881261014500,0.1820146484375,0.08675802499055862,-0.02352515421807766,-0.059363268315792084
1718308881310786300,0.231786376953125,0.02495819330215454,0.030054781585931778,-0.06888498365879059
1718308881360557300,0.281557373046875,0.0593661330640316,0.007360896095633507,0.09670829772949219
1718308881410329300,0.331329345703125,0.10116823762655258,-0.026532674208283424,0.1367325335741043
1718308881460100400,0.381100341796875,0.01919911801815033,0.0013778246939182281,0.02466638945043087
1718308881509872400,0.430872314453125,0.023500675335526466,-0.016983183100819588,0.07379170507192612
1718308881559643400,0.480643310546875,0.06729906052350998,0.020638305693864822,-0.03428994491696358
1718308881609415200,0.530415283203125,0.05069028586149216,-0.027005527168512344,-0.09288112074136734
1718308881659186200,0.580186279296875,-0.026769187301397324,-0.029851140454411507,0.06672750413417816
1718308881708958200,0.629958251953125,-0.03529718890786171,0.004352251533418894,-0.13982349634170532
1718308881758729200,0.679729248046875,0.010937280021607876,-0.01314217783510685,-0.03515896946191788
1718308881808501000,0.7295009765625,-0.0002472650376148522,-0.031826309859752655,-0.02001335471868515
1718308881858272000,0.77927197265625,0.10167308896780014,0.11171353608369827,-0.12075242400169373
1718308881908044000,0.8290439453125,0.15357773005962372,0.3104567229747772,-0.12733455002307892
1718308881957815300,0.878815185546875,0.18934206664562225,0.39286816120147705,-0.13437896966934204
1718308882007587000,0.928587158203125,0.5331945419311523,0.3662679195404053,-0.880769670009613
1718308882057358000,0.978358154296875,1.1092023849487305,0.4802915155887604,-0.46919524669647217
1718308882107130000,1.028130126953125,0.18370121717453003,1.9250284433364868,1.527875542640686
1718308882156901000,1.077901123046875,-2.36685848236084,-1.597301721572876,2.477051019668579
1718308882206673200,1.127673095703125,-0.21459950506687164,2.164155960083008,-0.30063045024871826
1718308882256444200,1.177444091796875,0.7121204733848572,-1.1391122341156006,0.15260541439056396
1718308882306216000,1.2272158203125,0.31343168020248413,-2.7692453861236572,0.7812314629554749
1718308882355987000,1.276987060546875,-0.5313206315040588,-1.048359990119934,-0.12341950088739395
1718308882405759000,1.326759033203125,-0.9902567863464355,-1.8027088642120361,0.07537920027971268
1718308882455530200,1.3765302734375,-1.1842150688171387,-1.5757653713226318,-0.6375651955604553
1718308882505301000,1.426301025390625,-0.6100180745124817,-1.1421359777450562,-0.21282067894935608
1718308882555073000,1.476072998046875,-0.3889884352684021,-0.9041607975959778,-0.49983954429626465
1718308882604844000,1.525843994140625,-0.3977733850479126,-0.6293656229972839,-0.23274700343608856
1718308882654616000,1.575615966796875,-0.3507031500339508,-0.33916157484054565,-0.1857316493988037
1718308882704387000,1.625386962890625,-0.3971896469593048,0.060126204043626785,-0.27102428674697876
1718308882754159000,1.6751591796875,-0.34496814012527466,-0.16271619498729706,-0.3426765203475952
1718308882803930000,1.72493017578125,-0.3753688931465149,0.2969553768634796,-0.4940227270126343
1718308882853702100,1.7747021484375,-0.2436469942331314,0.1092509850859642,-0.5137731432914734
1718308882903473200,1.82447314453125,-0.13715104758739471,-0.28479525446891785,0.04244999587535858
1718308882953245200,1.8742451171875,0.017855612561106682,-0.22003689408302307,-0.09460920840501785
1718308883003016000,1.924015869140625,-0.14248812198638916,-0.21463294327259064,0.13525205850601196
1718308883052788000,1.9737880859375,-0.0933740958571434,0.22422106564044952,-0.13802491128444672
1718308883102559000,2.02355908203125,-0.19898560643196106,0.08244941383600235,-0.027160346508026123
1718308883152331000,2.0733310546875,-0.15709319710731506,-0.07605303823947906,-0.24717289209365845
1718308883202102300,2.123102294921875,-0.05341628938913345,0.032006338238716125,-0.0806218758225441
1718308883251873000,2.172873046875,0.0940387099981308,-0.08300001919269562,0.015766672790050507
1718308883301645000,2.22264501953125,0.27509355545043945,-0.1761149764060974,0.3857192397117615
1718308883351416000,2.272416015625,0.17181764543056488,-0.031102165579795837,0.16683648526668549
1718308883401188000,2.32218798828125,0.23178483545780182,0.789093017578125,-0.6287214159965515
1718308883450959000,2.371958984375,-0.0032955093774944544,0.10589955747127533,-0.569015622138977
1718308883500731000,2.42173095703125,-0.059567295014858246,0.14592337608337402,-0.9550934433937073
1718308883550502100,2.471502197265625,-0.3452281355857849,-0.33792540431022644,-1.177139401435852
1718308883600274200,2.521274169921875,-0.3644647002220154,0.501031756401062,-1.5014787912368774
1718308883650045000,2.571044921875,-0.21607115864753723,0.20495447516441345,-1.4069197177886963
1718308883699815700,2.620815673828125,-0.5527741312980652,-0.9036503434181213,-0.6126191020011902
1718308883749587700,2.670587646484375,-0.3782758414745331,-0.13879910111427307,-0.7758664488792419
1718308883799358700,2.720358642578125,-0.39133283495903015,-0.4347999691963196,-0.5401960611343384
1718308883849130800,2.770130859375,-0.3676373362541199,-0.2128521353006363,-0.5113606452941895
1718308883898902000,2.819902099609375,0.05008630454540253,-0.843531608581543,-0.2887897491455078
1718308883948674000,2.869674072265625,0.29061031341552734,-1.373835563659668,0.38731569051742554
1718308883998444800,2.91944482421875,0.6328940987586975,-2.6036837100982666,0.6749975681304932
1718308884048216800,2.969216796875,0.9296746850013733,-3.4568917751312256,0.9202529191970825
1718308884097987800,3.01898779296875,2.4666593074798584,-5.403110504150391,1.38385808467865
1718308884147758800,3.0687587890625,3.079679489135742,-6.726519584655762,1.6229974031448364
1718308884197530600,3.118530517578125,2.950921058654785,-4.907349109649658,2.3121235370635986
1718308884247302000,3.168302001953125,2.585559606552124,-4.6048994064331055,3.271800994873047
1718308884297074000,3.218073974609375,1.6944029331207275,-2.4695327281951904,4.514843940734863
1718308884346845000,3.267844970703125,-0.348548948764801,-0.49091261625289917,2.2203445434570312
1718308884396617000,3.317616943359375,-2.6977553367614746,0.6552770733833313,0.11553090810775757
1718308884446387700,3.3673876953125,-1.6872042417526245,1.012646198272705,-1.7865785360336304
1718308884496158700,3.41715869140625,0.47750747203826904,-1.836287260055542,1.6509263515472412
1718308884545930800,3.4669306640625,2.963120698928833,0.018542032688856125,0.8265957236289978
1718308884595702000,3.516701904296875,0.8047279119491577,1.4157586097717285,0.15726858377456665
1718308884645474000,3.56647412109375,-0.7141361236572266,2.5597293376922607,-1.130333662033081
1718308884695245000,3.6162451171875,-1.2033298015594482,1.508067011833191,-1.4511810541152954
1718308884745017000,3.66601708984375,2.452090263366699,-3.4362435340881348,-2.355877161026001
1718308884794788000,3.7157880859375,5.194591522216797,-1.2308465242385864,0.14712733030319214
1718308884844560000,3.765559814453125,0.8112177848815918,-2.5464870929718018,1.9903689622879028
1718308884894331000,3.815330810546875,-0.2893415689468384,1.714733362197876,-1.0962122678756714
1718308884944102100,3.86510205078125,2.397752523422241,2.1653473377227783,-0.5680932998657227
1718308884993874200,3.914874267578125,1.6251221895217896,-0.10131315886974335,-0.46204933524131775
1718308885043645000,3.96464501953125,2.489715099334717,-3.4786741733551025,1.3389772176742554
1718308885093417000,4.0144169921875,3.0482735633850098,-2.6488864421844482,1.180722951889038
1718308885143188000,4.06418798828125,2.652069091796875,-0.5082837343215942,0.15638582408428192
1718308885192959000,4.113958984375,0.2243073731660843,0.9502823352813721,-0.0907343253493309
1718308885242731000,4.16373095703125,-0.25260844826698303,0.21843473613262177,-0.7822702527046204
1718308885292502000,4.213501953125,-0.5871263146400452,0.5665621161460876,-0.7811915278434753
1718308885342274000,4.263274169921875,0.5974006652832031,1.3801360130310059,-0.569106936454773
1718308885392045000,4.313045166015625,0.09142985194921494,0.21971628069877625,-0.3720328211784363
1718308885441816000,4.362816162109375,0.596702516078949,-0.11963561177253723,0.03954454883933067
1718308885491588000,4.412588134765625,3.605340003967285,-1.2841163873672485,0.5354551076889038
1718308885541358800,4.46235888671875,2.2016212940216064,-0.4888685345649719,0.5488929152488708
1718308885591130000,4.512130126953125,-0.0419032946228981,0.12058926373720169,0.05873509496450424
1718308885640902100,4.561902099609375,-0.9870628118515015,1.135213017463684,-0.21130521595478058
1718308885690672600,4.611672607421875,-0.4342036843299866,0.005652653984725475,-0.07484464347362518
1718308885740444700,4.661444580078125,-0.3137300908565521,1.2123479843139648,0.27401986718177795
1718308885790215700,4.711215576171875,0.059288498014211655,0.4375278651714325,0.25602421164512634
1718308885839986700,4.760986572265625,-0.09647992998361588,0.3642894923686981,-0.05248771235346794
1718308885889758700,4.8107587890625,-0.16931739449501038,-0.08123859018087387,-0.3300282955169678
1718308885939529700,4.86052978515625,0.3340872526168823,-0.2669505774974823,-0.8036466240882874
1718308885989300700,4.91030078125,1.3488719463348389,-1.1514887809753418,-0.7740534543991089
1718308886039072800,4.96007275390625,1.0778656005859375,0.12455189228057861,-1.3176119327545166
1718308886088843800,5.00984375,-0.16262969374656677,0.7395959496498108,0.8315320014953613
1718308886138614500,5.059614501953125,-0.44713976979255676,-0.18104363977909088,0.7689678072929382
1718308886188386600,5.109386474609375,-0.8044442534446716,0.3076782524585724,1.335593581199646
1718308886238157800,5.15915771484375,-0.5074945092201233,0.16039417684078217,0.7100418210029602
1718308886287929900,5.208929931640625,0.07186833769083023,-0.8932240009307861,0.36971837282180786
1718308886337700900,5.258700927734375,0.8890761733055115,0.8432274460792542,0.34545937180519104
1718308886387471600,5.3084716796875,-0.059187982231378555,-0.25299298763275146,0.321265310049057
1718308886437243600,5.35824365234375,-0.4210777282714844,-1.1163522005081177,-0.11508877575397491
1718308886487014700,5.4080146484375,-0.9647829532623291,1.8452420234680176,0.06405549496412277
1718308886536786000,5.457785888671875,0.07612486928701401,-1.9497407674789429,-0.03895372152328491
1718308886586557700,5.5075576171875,0.1556566059589386,1.1467864513397217,1.0720402002334595
1718308886636328700,5.55732861328125,0.4820122718811035,0.954775333404541,0.27965301275253296
1718308886686099700,5.607099609375,-0.0038644704036414623,0.1550910919904709,0.13687410950660706
1718308886735871700,5.656871826171875,-0.11083659529685974,0.5456991791725159,-0.013208690099418163
1718308886785642500,5.706642578125,-0.8556399345397949,-0.353770911693573,-0.6724342703819275
1718308886835414500,5.75641455078125,-0.8773316144943237,-0.6798209547996521,-0.4491262137889862
1718308886885185800,5.806185791015625,0.0575568825006485,-0.16303874552249908,0.26128479838371277
1718308886934956800,5.855956787109375,-0.4038744866847992,-0.9350095391273499,0.6607081294059753
1718308886984728800,5.905728759765625,-0.21090002357959747,-0.7178072333335876,0.2230338603258133
1718308887034499600,5.95549951171875,0.014201585203409195,0.07801695913076401,0.3943357765674591
1718308887084270600,6.0052705078125,0.018893910571932793,0.2597465515136719,0.4530445635318756
1718308887134042600,6.055042724609375,0.06992127001285553,0.09219846874475479,0.13908414542675018
1718308887183814000,6.10481396484375,-0.023085301741957664,0.05554346740245819,-0.1324673444032669
1718308887233584600,6.154584716796875,0.3542967736721039,-0.37677204608917236,-0.6740472316741943
1718308887283356700,6.204356689453125,0.5106877088546753,-0.2294648289680481,-1.1041357517242432
1718308887333127700,6.254127685546875,0.5077913403511047,-0.45333772897720337,-1.861425757408142
1718308887382899700,6.303899658203125,0.6294148564338684,-1.5638240575790405,-2.698087453842163
1718308887432670700,6.353670654296875,0.45377683639526367,-1.4736201763153076,-2.1990597248077393
1718308887482441700,6.403441650390625,-0.16303923726081848,-1.3280333280563354,-1.5952379703521729
1718308887532213800,6.4532138671875,-0.19442762434482574,-1.6458698511123657,-2.3158020973205566
1718308887581984800,6.50298486328125,0.38944482803344727,-1.4246524572372437,-1.5401743650436401
1718308887631755800,6.552755859375,-0.17512699961662292,-0.4066182076931,-0.9128594398498535
1718308887681527800,6.60252783203125,-0.4321228861808777,-0.12505057454109192,0.1232578381896019
1718308887731298600,6.652298583984375,-0.6511772274971008,0.02188011445105076,0.7327733635902405
1718308887781069800,6.70206982421875,-0.6993230581283569,0.3750508725643158,1.358201503753662
1718308887830841900,6.751841796875,-0.8225919008255005,0.4070897102355957,1.7249311208724976
1718308887880612900,6.80161279296875,-0.8795022964477539,0.8010315299034119,1.2677382230758667
1718308887930383600,6.851383544921875,0.16078123450279236,0.32568132877349854,0.8910452723503113
1718308887980155600,6.90115576171875,0.12284927070140839,0.30207279324531555,-0.2846660017967224
1718308888029926700,6.9509267578125,-0.5971976518630981,-0.27519604563713074,0.7232719659805298
1718308888079698000,7.000697998046875,-0.4615716338157654,1.1377949714660645,0.7505570650100708
1718308888129470000,7.050469970703125,-0.1893058568239212,-0.7008019685745239,0.5205262303352356
1718308888179240700,7.10024072265625,-0.5733571648597717,0.27193230390548706,0.5771030187606812
1718308888229011700,7.15001171875,-0.1055733859539032,-0.09705982357263565,0.3655632436275482
1718308888278783700,7.19978369140625,-0.3035370707511902,-0.11048637330532074,0.7871699929237366
1718308888328554800,7.2495546875,-0.21610935032367706,0.7341222763061523,-0.2755883038043976
1718308888378325800,7.29932568359375,-0.3560827970504761,0.4593782126903534,0.5667979121208191
1718308888428097800,7.349097900390625,-0.18825499713420868,1.0218784809112549,0.7941166162490845
1718308888477868800,7.398868896484375,-0.2758907675743103,0.10180088132619858,-0.015386149287223816
1718308888527639800,7.448639892578125,-0.283880352973938,0.16441701352596283,0.2930041551589966
1718308888577411600,7.49841162109375,-0.08605338633060455,0.20216767489910126,0.10411247611045837
1718308888627182800,7.548182861328125,-0.08911125361919403,0.29178664088249207,0.04604841023683548
1718308888676954600,7.59795458984375,-0.16746127605438232,0.4164995551109314,0.0662108063697815
1718308888726726400,7.647726318359375,-0.03737235814332962,0.028012216091156006,0.006877961568534374
1718308888776497400,7.697497314453125,-0.0026156704407185316,0.23913490772247314,0.012472210451960564
1718308888826268400,7.747268310546875,0.03159841522574425,-0.012010376900434494,0.027536282315850258
1718308888876040400,7.79704052734375,0.09214352816343307,-0.04298777878284454,-0.003972252365201712
1718308888925811200,7.846811279296875,0.16943098604679108,0.1386774778366089,-0.09735909849405289
1718308888975582500,7.89658251953125,0.058897022157907486,-0.1515285223722458,-0.028659658506512642
1718308889025354500,7.9463544921875,-0.05655816197395325,-0.009098874405026436,-0.03907766565680504
1718308889075125500,7.99612548828125,-0.04144199937582016,-0.44873377680778503,-0.12474729120731354
1718308889124896300,8.045896240234375,0.18785347044467926,-0.6323857307434082,-0.15913452208042145
1718308889174668300,8.095668212890626,0.20976819097995758,-0.7982655167579651,-0.18392150104045868
1718308889224439300,8.145439208984374,0.14300194382667542,-0.7488513588905334,-0.10656751692295074
1718308889274210600,8.19521044921875,0.23380249738693237,-0.9030364155769348,-0.2382708340883255
1718308889323982600,8.244982666015625,0.3153379261493683,-1.066659927368164,-0.21889273822307587
1718308889373753300,8.29475341796875,0.3229239583015442,-0.7246280312538147,-0.33288314938545227
1718308889423524400,8.3445244140625,0.2745293080806732,-1.1629338264465332,-0.24436601996421814
1718308889473296400,8.39429638671875,0.2791975438594818,-1.2308560609817505,-0.2359936237335205
1718308889523067400,8.4440673828125,0.3437292277812958,-1.7226742506027222,-0.47461920976638794
1718308889572838400,8.49383837890625,0.44634756445884705,-1.9924302101135254,-0.5441746711730957
1718308889622610400,8.5436103515625,0.5359539985656738,-1.7762693166732788,-0.5180187225341797
1718308889672381000,8.593380859375,0.5341872572898865,-1.0197222232818604,-0.26835429668426514
1718308889722152000,8.64315185546875,0.5994876623153687,-0.5007762312889099,-0.3790360987186432
1718308889771923000,8.6929228515625,0.6349900364875793,-0.29589563608169556,-0.3049164414405823
1718308889821695000,8.742695068359374,0.6075243353843689,-0.04530547186732292,-0.3619929552078247
1718308889871466000,8.792466064453125,0.5166211128234863,-0.1260128766298294,-0.4741249680519104
1718308889921237000,8.842237060546875,0.29023513197898865,-0.017393846064805984,-0.6705735325813293
1718308889971009000,8.892009033203125,0.6969792246818542,-0.4614899754524231,-0.5441954731941223
1718308890020780000,8.941780029296876,0.2457006722688675,-1.5963914394378662,0.3104972839355469
1718308890070551000,8.991551025390624,0.16921405494213104,-1.3174638748168945,-0.04629458859562874
1718308890120322800,9.04132275390625,0.29153063893318176,-1.339594841003418,-1.2552425861358643
1718308890170094000,9.091093994140625,-0.13827136158943176,-1.6180342435836792,-0.3773770034313202
1718308890219865000,9.140864990234375,-0.8108030557632446,-2.619431495666504,-1.089776635169983
1718308890269635800,9.1906357421875,-1.5443679094314575,-2.7583911418914795,-2.534050226211548
1718308890319407900,9.240407958984376,-2.1791183948516846,-2.429699659347534,-1.7286754846572876
1718308890369179100,9.29017919921875,-2.115401268005371,-2.9032270908355713,-1.7753350734710693
1718308890418950100,9.3399501953125,-1.3310750722885132,-3.1961512565612793,-1.5958590507507324
1718308890468721000,9.389720947265625,-0.7002058625221252,-2.633112907409668,-1.6471525430679321
1718308890518493000,9.439492919921875,-0.09594721347093582,-2.4117202758789062,-0.9993541240692139
1718308890568264000,9.489263916015625,0.2637695074081421,-1.2732468843460083,-0.5493521094322205
1718308890618035200,9.53903515625,-0.10717975348234177,-0.4130423069000244,-0.2785267233848572
1718308890667806000,9.588805908203126,-0.5222795009613037,0.21279072761535645,0.2710515260696411
1718308890717578000,9.638577880859375,-0.5175507068634033,0.2495129555463791,0.6992867588996887
1718308890767348700,9.6883486328125,-0.42286354303359985,-1.5579286813735962,0.2547665238380432
1718308890817119700,9.73811962890625,-0.37307241559028625,-0.6113921403884888,-0.23603619635105133
1718308890866891800,9.787891845703125,-0.7882857322692871,1.1288303136825562,1.8334805965423584
1718308890916663000,9.8376630859375,0.36133885383605957,-0.4051125943660736,-0.08886775374412537
1718308890966433800,9.887433837890624,-0.4541258215904236,1.6040388345718384,1.7634143829345703
1718308891016204800,9.937204833984374,-0.227476105093956,1.4343029260635376,1.0450923442840576
1718308891065975800,9.986975830078125,-0.7437297701835632,0.4025307297706604,0.8021920919418335
1718308891115747800,10.036747802734375,-0.09658672660589218,0.558526873588562,0.3543680012226105
1718308891165518800,10.086518798828125,-0.03895559534430504,0.8317021727561951,0.7325253486633301
1718308891215289900,10.136289794921876,-0.003480289364233613,0.07310301065444946,0.4965536594390869
1718308891265060900,10.186060791015626,-0.2926886975765228,0.10326749831438065,0.6947745084762573
1718308891314833000,10.2358330078125,-0.17322169244289398,0.5564011335372925,0.822293758392334
1718308891364603600,10.285603759765625,0.038302816450595856,0.36159747838974,0.7248597145080566
1718308891414375000,10.335375,0.07910390198230743,0.41726231575012207,0.775383710861206
1718308891464146000,10.38514599609375,0.12467940896749496,0.32117047905921936,0.725277304649353
1718308891513917000,10.4349169921875,0.03482389822602272,0.007007886189967394,0.59188312292099
1718308891563688700,10.484688720703126,0.2527710795402527,-0.21151743829250336,0.34726327657699585
1718308891613459700,10.534459716796874,0.2524612247943878,-0.6275966763496399,-0.2970717251300812
1718308891663231000,10.58423095703125,0.45131915807724,-0.2477675825357437,-1.36052668094635
1718308891713002000,10.634001953125,0.9705930352210999,-1.6368130445480347,-2.6562986373901367
1718308891762773000,10.68377294921875,0.8232360482215881,0.039927199482917786,-2.9540627002716064
1718308891812545000,10.733544921875,-0.2225305140018463,-0.26064354181289673,-1.0357729196548462
1718308891862315800,10.783315673828126,-0.36199238896369934,-2.142587900161743,-1.7975902557373047
1718308891912087000,10.833087158203124,0.3367992639541626,-1.6701843738555908,-2.3650169372558594
1718308891961858000,10.882858154296875,0.4380019009113312,-0.9340595006942749,-1.3151789903640747
1718308892011628800,10.93262890625,-0.23710839450359344,0.32644230127334595,-0.09478016197681427
1718308892061400800,10.98240087890625,-0.3157854378223419,0.9424335956573486,0.08315502852201462
1718308892111171800,11.032171875,-0.623047411441803,0.6531583070755005,0.7254825234413147
1718308892160943000,11.081943115234376,-1.0862067937850952,-0.48220309615135193,1.0404382944107056
1718308892210713900,11.1317138671875,-0.11156591773033142,-0.05840838700532913,0.13621565699577332
1718308892260484900,11.18148486328125,-0.23353293538093567,-2.242105484008789,-0.2044951468706131
1718308892310256000,11.231256103515625,-0.1050620973110199,3.71046781539917,2.3958725929260254
1718308892360028000,11.28102783203125,0.5910815000534058,-2.441652297973633,-0.96986985206604
1718308892409799000,11.330798828125,-0.8187933564186096,3.9739990234375,2.4695703983306885
1718308892459570000,11.38056982421875,0.08988132327795029,-0.879020631313324,0.17140208184719086
1718308892509341000,11.4303408203125,-0.7276049256324768,0.39173510670661926,1.203284740447998
1718308892559112200,11.4801123046875,-0.14180879294872284,0.3094714879989624,0.5511818528175354
1718308892608883000,11.529883056640625,0.019929636269807816,0.573150634765625,0.5816709399223328
1718308892658654500,11.579654541015625,-0.06995357573032379,0.3227308392524719,0.779295802116394
1718308892708425500,11.629425537109375,-0.22486762702465057,0.048584260046482086,0.7649032473564148
1718308892758196500,11.679196533203125,-0.03213915601372719,0.5683391094207764,0.8433243036270142
1718308892807967500,11.728967529296876,0.23590576648712158,0.6122550964355469,0.7139506340026855
1718308892857738500,11.778738525390626,0.0903354287147522,0.7596932649612427,0.7383585572242737
1718308892907509500,11.828509521484374,0.05181949585676193,0.25832825899124146,0.6081681251525879
1718308892957281500,11.878281494140625,0.126410111784935,0.34460699558258057,0.507699191570282
1718308893007052500,11.928052490234375,0.2747075855731964,-0.5195563435554504,-0.3749735951423645
1718308893056823600,11.977823486328125,0.3343289792537689,-0.0519121028482914,-1.4053410291671753
1718308893106594600,12.027594482421875,0.875607430934906,-1.3858698606491089,-2.7252883911132812
1718308893156365300,12.077365234375,0.37523454427719116,-0.16503669321537018,-2.606849193572998
1718308893206136600,12.127136474609374,-0.5015522837638855,-1.440952181816101,-1.6833666563034058
1718308893255907600,12.176907470703124,0.4684693515300751,-1.8593021631240845,-1.9980891942977905
1718308893305679600,12.2266796875,0.5325912237167358,-1.091848373413086,-2.129343271255493
1718308893355450400,12.276450439453125,0.10612131655216217,-0.4409322142601013,-0.8431552052497864
1718308893405221400,12.326221435546875,-0.30116531252861023,0.35208284854888916,-0.02419343590736389
1718308893454992600,12.37599267578125,-0.2016081064939499,0.8082479238510132,0.16940845549106598
1718308893504763400,12.425763427734376,-0.5244975090026855,0.5761929750442505,0.6957520246505737
1718308893554534400,12.475534423828124,-0.9641762971878052,-0.48976925015449524,1.4548311233520508
1718308893604305400,12.525305419921875,-0.20251287519931793,0.5583714246749878,-0.07007799297571182
1718308893654076700,12.57507666015625,-0.4692979156970978,-1.7342809438705444,0.41036123037338257
1718308893703849200,12.62484912109375,0.32198500633239746,3.426344871520996,1.1652241945266724
1718308893753620200,12.6746201171875,0.308065801858902,-0.921671986579895,0.0931214764714241
1718308893803391200,12.72439111328125,-0.6728504300117493,3.017317056655884,1.9878226518630981
1718308893853162200,12.774162353515624,-0.3755149841308594,0.027120208367705345,0.6718181371688843
1718308893902933200,12.823933349609375,-0.1768510341644287,-0.5013107061386108,0.8082510232925415
1718308893952704300,12.873704345703125,-0.30568456649780273,0.9186314344406128,0.8248838186264038
1718308894002475300,12.923475341796875,-0.005061228759586811,0.9555561542510986,0.5910949110984802
1718308894052246300,12.973246337890625,-0.05900901183485985,0.5206871032714844,0.6333862543106079
1718308894102017300,13.023017333984376,0.02714451216161251,0.6740366816520691,0.7312076687812805
1718308894151789300,13.072789306640624,-0.014838092029094696,0.8589940667152405,0.7459559440612793
1718308894201560300,13.122560302734374,0.1440107375383377,1.1934481859207153,0.3582090735435486
1718308894251331300,13.172331298828125,0.19064240157604218,0.5796672105789185,0.3567274510860443
1718308894301102000,13.22210205078125,0.17009390890598297,0.084357351064682,-0.1382363885641098
1718308894350873300,13.271873291015625,-0.009066752158105373,-0.2000868171453476,-1.1208686828613281
1718308894400644400,13.321644287109375,0.5206267237663269,-0.09031139314174652,-2.6062588691711426
1718308894450415000,13.3714150390625,1.308628797531128,0.19190119206905365,-3.290210485458374
1718308894500186000,13.42118603515625,0.17752620577812195,1.2674323320388794,-1.043932318687439
1718308894549957400,13.470957275390624,-0.3537147045135498,-1.487977147102356,-1.6409821510314941
1718308894599728400,13.520728271484375,0.4534332752227783,-0.9494224786758423,-1.4168568849563599
1718308894649499100,13.5704990234375,0.5229429602622986,-0.7951915860176086,-0.8652312159538269
1718308894699269600,13.62026953125,0.009980473667383194,0.31579262018203735,0.38378822803497314
1718308894749040400,13.670040283203125,0.21640825271606445,1.690901279449463,0.4864100217819214
1718308894798812400,13.7198125,-0.1984390765428543,1.834559440612793,0.7603479027748108
1718308894848583400,13.76958349609375,-0.4746961295604706,0.9644455909729004,1.5814107656478882
1718308894898354400,13.8193544921875,-0.1381593942642212,0.164520725607872,0.10966238379478455
1718308894948125400,13.86912548828125,-0.15804052352905273,-0.4269511103630066,-0.00215163454413414
1718308894997896400,13.918896484375,-0.6519444584846497,0.7855604887008667,2.290369987487793
1718308895047667500,13.96866748046875,0.152756005525589,0.8329697251319885,-0.7197216153144836
1718308895097438500,14.0184384765625,0.12308143079280853,2.03275728225708,1.2970759868621826
1718308895147209500,14.06820947265625,-0.3091481626033783,2.346423387527466,0.9750034809112549
1718308895196980500,14.11798046875,-1.0897216796875,2.060636281967163,1.062377691268921
1718308895246751500,14.16775146484375,0.04729139432311058,0.37565284967422485,0.09527450054883957
1718308895296522500,14.2175224609375,-0.0032586955931037664,1.8019052743911743,0.5768564343452454
1718308895346293500,14.26729345703125,0.06458493322134018,1.2343089580535889,0.550468385219574
1718308895396064500,14.317064453125,-0.039608750492334366,0.5335294604301453,0.5372110605239868
1718308895445835500,14.36683544921875,0.0469624288380146,0.8574545979499817,0.5167316794395447
1718308895495606500,14.4166064453125,0.25547006726264954,0.7623996734619141,0.49829500913619995
1718308895545377500,14.46637744140625,0.1784321665763855,0.8922052979469299,0.6897271275520325
1718308895595148500,14.5161484375,0.17865461111068726,1.1010452508926392,0.7296809554100037
1718308895644919300,14.565919189453124,0.125125452876091,0.7523964643478394,0.418001651763916
1718308895694690800,14.61569091796875,-0.05557793006300926,0.4785836338996887,0.07628978788852692
1718308895744462000,14.665462158203125,0.041755352169275284,-0.4325760304927826,-1.0133289098739624
1718308895794233000,14.715233154296875,0.6851057410240173,-0.4450101852416992,-2.6844329833984375
1718308895844003800,14.76500390625,2.006411075592041,-0.6275835037231445,-3.8623313903808594
1718308895893775000,14.814775146484376,0.49808457493782043,1.7416235208511353,-1.433462142944336
1718308895943546000,14.864546142578124,0.33176207542419434,-0.9922032356262207,-1.407705307006836
1718308895993317000,14.914317138671874,1.364975094795227,-1.5441771745681763,-2.278164863586426
1718308896043088000,14.964087890625,0.9056671857833862,-1.5892328023910522,-1.5574226379394531
1718308896092859100,15.013859130859375,0.2297370731830597,-0.5857431292533875,-0.38543176651000977
1718308896142630100,15.063630126953125,-0.5089542865753174,-1.126022219657898,-0.2970185875892639
1718308896192401000,15.11340087890625,-0.6907658576965332,-1.1884516477584839,0.3415166735649109
1718308896242172000,15.163171875,-0.7761298418045044,-1.6148470640182495,0.7046732902526855
1718308896291943200,15.212943115234374,-1.057803988456726,-2.083791732788086,1.3197636604309082
1718308896341714000,15.2627138671875,-0.8008346557617188,-0.9839884638786316,1.3045872449874878
1718308896391485000,15.31248486328125,0.4457700550556183,-0.6024799942970276,0.19904036819934845
1718308896441256000,15.362255859375,0.030899841338396072,0.9221438765525818,-0.14527079463005066
1718308896491027200,15.412027099609375,-0.454041451215744,-1.3526064157485962,1.250977873802185
1718308896540798000,15.4617978515625,-0.6580566167831421,-2.9886467456817627,-1.1247477531433105
1718308896590569000,15.51156884765625,-0.5285204648971558,0.5847499370574951,1.636983036994934
1718308896640340000,15.561340087890626,-0.5261780023574829,-0.8059804439544678,0.060385312885046005
1718308896690111500,15.611111572265624,-0.43672630190849304,1.4010659456253052,0.8233532905578613
1718308896739882500,15.660882568359375,-0.224887415766716,-1.0054428577423096,0.19385236501693726
1718308896789653200,15.7106533203125,0.07298058271408081,-0.7424629926681519,-0.2618147134780884
1718308896839424300,15.76042431640625,-0.11964712291955948,1.097172737121582,0.4574088156223297
1718308896889195500,15.810195556640625,0.1439439356327057,0.27632731199264526,0.3459171652793884
1718308896938965200,15.85996533203125,0.03830629214644432,-0.49829646944999695,0.07954362034797668
1718308896988736500,15.909736572265626,-0.2641879916191101,0.09285334497690201,0.3658904731273651
1718308897038507500,15.959507568359374,-0.11191866546869278,0.2693030834197998,-0.008551262319087982
1718308897088278300,16.0092783203125,0.04004969820380211,0.20701991021633148,-0.18543976545333862
1718308897138049300,16.05904931640625,-0.023210596293210983,0.07164686173200607,-0.018450535833835602
1718308897187820500,16.108820556640627,0.03340930491685867,-0.5070531368255615,-0.24721971154212952
1718308897237591600,16.158591552734375,-0.11202182620763779,-0.3845149278640747,-0.19111321866512299
1718308897287362300,16.2083623046875,-0.051162440329790115,-0.18291591107845306,-0.23311157524585724
1718308897337133300,16.25813330078125,0.06365572661161423,0.0466553270816803,-0.1374485343694687
1718308897386904600,16.307904541015624,0.03994250297546387,-0.06777719408273697,-0.09733013063669205
1718308897436675300,16.35767529296875,-0.006517971400171518,0.004565417766571045,0.007633623667061329
1718308897486446300,16.4074462890625,-0.027577748522162437,-0.009306139312684536,0.04671499878168106
1718308897536216600,16.457216552734376,-0.04520418122410774,-0.1095706894993782,0.050362326204776764
1718308897585987300,16.5069873046875,-0.10322637110948563,-0.02290080301463604,0.10947657376527786
1718308897635758300,16.55675830078125,-0.09079496562480927,0.09704674035310745,0.0821353867650032
1718308897685528300,16.6065283203125,0.027942366898059845,0.041456252336502075,0.02528151497244835
1718308897735299300,16.65629931640625,0.05073649436235428,0.05911637470126152,0.14554637670516968
1718308897785070300,16.7060703125,0.013753678649663925,-0.07455072551965714,0.19403831660747528
1718308897834841300,16.75584130859375,-0.00241287425160408,0.004434100817888975,0.15928925573825836
1718308897884612400,16.8056123046875,-0.00566775631159544,-0.014230034314095974,0.06431789696216583
1718308897934382300,16.85538232421875,-0.016281452029943466,-0.06989658623933792,-0.044893570244312286
1718308897984153300,16.9051533203125,-0.020846309140324593,-0.026772649958729744,-0.10273798555135727
1718308898033924400,16.95492431640625,0.008967611938714981,-0.1306566596031189,-0.1125517189502716
1718308898083695400,17.0046953125,-0.062242817133665085,-0.1075792983174324,-0.09432730823755264
1718308898133466400,17.05446630859375,0.0022002533078193665,-0.0018257314804941416,-0.2078479528427124
1718308898183237400,17.1042373046875,-0.000775629305280745,-0.03449809551239014,-0.16593270003795624
1718308898233008400,17.15400830078125,-0.022324198856949806,0.021978085860610008,-0.12281709164381027
1718308898282778400,17.2037783203125,-0.007472614757716656,0.12680572271347046,-0.07728308439254761
1718308898332549400,17.25354931640625,0.030825871974229813,0.16869010031223297,-0.059791699051856995
1718308898382320400,17.3033203125,0.035761840641498566,0.10552602261304855,0.007979814894497395
1718308898432091100,17.353091064453125,-0.01939764991402626,0.1213744506239891,0.04525766521692276
1718308898481862400,17.4028623046875,-0.03242740035057068,0.0323956236243248,0.042925283312797546
1718308898531633400,17.45263330078125,-0.02387259341776371,-0.06405015289783478,0.037386927753686905
1718308898581403100,17.502403076171873,-0.03518376871943474,-0.05389823019504547,-0.011040939018130302
1718308898631174400,17.55217431640625,0.01089926902204752,-0.02060643956065178,0.051618751138448715
1718308898680945700,17.601945556640626,0.036225296556949615,0.014203423634171486,0.19492076337337494
1718308898730716400,17.65171630859375,0.04762948304414749,0.0114614088088274,0.27321016788482666
1718308898780487400,17.7014873046875,0.07208988815546036,0.047542110085487366,0.16059499979019165
1718308898830257400,17.75125732421875,0.02735477313399315,0.12538833916187286,0.04176313057541847
1718308898880028400,17.8010283203125,-0.019621189683675766,0.06111820042133331,-0.06504129618406296
1718308898929799700,17.850799560546875,0.011719022877514362,-0.04305761307477951,-0.0776054635643959
1718308898979570700,17.90057080078125,0.00222438620403409,-0.16604675352573395,-0.13549968600273132
1718308899029341400,17.950341552734375,-0.04562206193804741,-0.0906105786561966,-0.18747086822986603
1718308899079111700,18.000111572265624,-0.014215841889381409,-0.11453460156917572,-0.17187488079071045
1718308899128882400,18.04988232421875,0.005262353923171759,-0.022100472822785378,-0.15618370473384857
1718308899178653400,18.0996533203125,-0.0077430265955626965,0.01091444306075573,-0.11848793178796768
1718308899228424400,18.149424560546876,-0.025805383920669556,0.09309932589530945,-0.0468481071293354
1718308899278195700,18.19919580078125,0.018033776432275772,0.024349777027964592,-0.017916735261678696
1718308899327965400,18.24896533203125,-0.012040005065500736,-0.047777559608221054,0.07151244580745697
1718308899377736400,18.298736328125,-0.05475587397813797,-0.1443171501159668,0.02533656172454357
1718308899427507700,18.3485078125,-0.0033130920492112637,-0.03502022102475166,-0.03582199662923813
1718308899477278500,18.398278564453125,0.011414654552936554,0.07068415731191635,0.010291047394275665
1718308899527048700,18.448048583984374,-0.06090344861149788,0.09166897088289261,0.09507981687784195
1718308899576819500,18.4978193359375,-0.045638009905815125,0.09223520755767822,0.22825957834720612
1718308899626590500,18.547590576171874,0.03804769739508629,0.1681753396987915,0.2691655158996582
1718308899676361500,18.597361572265626,0.1021033450961113,0.10765249282121658,0.14911103248596191
1718308899726131500,18.64713134765625,0.05165102332830429,0.10581766068935394,0.16617737710475922
1718308899775902500,18.69690234375,0.02618454582989216,-0.13211768865585327,0.0730268657207489
1718308899825673500,18.746673583984375,-0.05959024652838707,-0.062151022255420685,-0.03712291643023491
1718308899875443500,18.796443359375,-0.009516661055386066,0.06972957402467728,-0.11578701436519623
1718308899925214500,18.84621435546875,0.05494418740272522,-0.021790433675050735,-0.13104717433452606
1718308899974985500,18.8959853515625,-0.02779952809214592,-0.05129005014896393,-0.12159138172864914
1718308900024756500,18.945756591796876,-0.04994184523820877,-0.26065683364868164,-0.20033465325832367
1718308900074526500,18.9955263671875,-0.039579056203365326,-0.13559086620807648,-0.24043682217597961
1718308900124297500,19.04529736328125,0.03274720534682274,-0.0026582367718219757,-0.19393199682235718
1718308900174068500,19.095068359375,0.043308600783348083,0.13353130221366882,-0.09518317878246307
1718308900223838500,19.14483837890625,0.008386638946831226,0.12900149822235107,-0.07201454788446426
1718308900273609500,19.194609375,-0.03710058704018593,0.07578037679195404,-0.001959091518074274
1718308900323380500,19.24438037109375,-0.024486856535077095,-0.01724483072757721,0.04653036221861839
1718308900373150500,19.294150390625,-0.003609701758250594,-0.039664044976234436,0.0714842677116394
1718308900422921500,19.34392138671875,-0.031099852174520493,-0.1675020456314087,0.040019385516643524
1718308900472692500,19.3936923828125,-0.04698117822408676,-0.12048503011465073,0.08754409104585648
1718308900522463500,19.44346337890625,0.00005507224705070257,-0.1209229975938797,0.10583570599555969
1718308900572233500,19.4932333984375,0.08426915109157562,-0.05581844225525856,0.1823340356349945
1718308900622004500,19.54300439453125,0.09154307842254639,0.03226807713508606,0.26698029041290283
1718308900671775700,19.592775634765626,0.0719858855009079,0.057820044457912445,0.21371521055698395
1718308900721545700,19.642545654296875,0.047779083251953125,-0.08270138502120972,0.1631375253200531
1718308900771316700,19.692316650390627,-0.019643301144242287,-0.047668926417827606,0.0742473155260086
1718308900821087700,19.742087646484375,-0.04560379311442375,0.06997837126255035,-0.054480500519275665
1718308900870857700,19.791857666015623,0.014695466496050358,0.058780767023563385,-0.1259600967168808
1718308900920628700,19.841628662109375,0.018473593518137932,-0.04594247415661812,-0.15250509977340698
1718308900970398700,19.891398681640624,-0.055730629712343216,-0.16539500653743744,-0.1666649580001831
1718308901020169700,19.941169677734376,-0.09127787500619888,-0.05487779155373573,-0.216360941529274
1718308901069940700,19.990940673828124,0.011798572726547718,-0.046660006046295166,-0.22649669647216797
1718308901119710700,20.040710693359376,0.048638053238391876,0.1721423864364624,-0.0836494117975235
1718308901169481700,20.090481689453124,0.0046336716040968895,0.07280562072992325,-0.04672549292445183
1718308901219252700,20.140252685546876,-0.0434560626745224,0.04002567008137703,0.013288735412061214
1718308901269022700,20.190022705078125,0.010336469858884811,-0.09202028810977936,0.05569250136613846
1718308901318793700,20.239793701171877,0.023657800629734993,-0.17348633706569672,-0.006430378183722496
1718308901368564700,20.289564697265625,-0.03581647947430611,-0.13096162676811218,-0.02055494859814644
1718308901418334700,20.339334716796873,-0.06960863620042801,-0.16421954333782196,0.06760918349027634
1718308901468105700,20.389105712890625,0.030900796875357628,-0.10228520631790161,0.059537772089242935
1718308901517875700,20.438875732421874,0.09203649312257767,0.06405184417963028,0.18782183527946472
1718308901567646700,20.488646728515626,0.06310846656560898,0.032116424292325974,0.28533777594566345
1718308901617417700,20.538417724609374,-0.04443942755460739,0.10633780807256699,0.33941343426704407
1718308901667187700,20.588187744140626,0.05780231952667236,-0.15015991032123566,0.18075092136859894
1718308901716958700,20.637958740234374,0.20912791788578033,-0.27685126662254333,-0.1357141137123108
1718308901766729000,20.68772900390625,-0.015671301633119583,0.16880865395069122,0.03238778933882713
1718308901816500000,20.7375,-0.018873516470193863,-0.05382659286260605,-0.13406404852867126
1718308901866270700,20.787270751953123,-0.04593076929450035,-0.0035847059916704893,-0.1811196357011795
1718308901916041000,20.837041015625,-0.02905668318271637,0.27295324206352234,-0.17334631085395813
1718308901965812000,20.88681201171875,-0.0035147713497281075,0.03774331882596016,-0.1918325424194336
1718308902015582000,20.93658203125,-0.013791241683065891,-0.021074287593364716,-0.23521357774734497
1718308902065353000,20.98635302734375,-0.01944100856781006,0.10585683584213257,-0.12291185557842255
1718308902115122700,21.036122802734376,0.026794062927365303,0.0327637605369091,-0.08291608840227127
1718308902164894000,21.08589404296875,0.026320256292819977,0.05469244718551636,-0.030200697481632233
1718308902214663700,21.13566357421875,0.02012357860803604,-0.03283485770225525,0.025172583758831024
1718308902264434700,21.1854345703125,-0.011704958975315094,0.011273624375462532,-0.0011202339082956314
1718308902314206000,21.2352060546875,-0.0027844661381095648,-0.04741239547729492,-0.030724285170435905
1718308902363975700,21.2849755859375,-0.018382934853434563,-0.07320106774568558,-0.031008031219244003
1718308902413747000,21.334746826171877,-0.047249939292669296,-0.08420399576425552,0.04883971065282822
1718308902463517000,21.384516845703125,0.0047744810581207275,-0.04739215597510338,0.1916271597146988
1718308902513287700,21.43428759765625,0.018443923443555832,-0.04134339094161987,0.2713935375213623
1718308902563058000,21.484057861328125,-0.033131420612335205,0.04262891039252281,0.27402806282043457
1718308902612829000,21.533828857421874,-0.012170311063528061,-0.04112859442830086,0.17232784628868103
1718308902662599000,21.583598876953126,0.02734237350523472,0.019185246899724007,0.051812466233968735
1718308902712370200,21.6333701171875,-0.007974671199917793,0.15701882541179657,-0.04436258599162102
1718308902762140200,21.68314013671875,-0.05776733160018921,0.23215223848819733,-0.12596061825752258
1718308902811911400,21.732911376953126,0.019340505823493004,-0.13803967833518982,-0.11050204187631607
1718308902861681200,21.78268115234375,-0.05036870017647743,-0.2017461657524109,-0.15125584602355957
1718308902911452400,21.832452392578126,-0.06146126613020897,-0.06075992435216904,-0.22062411904335022
1718308902961222100,21.88222216796875,0.017455456778407097,0.017131926491856575,-0.18513223528862
1718308903010993200,21.9319931640625,0.03302335739135742,0.12101179361343384,-0.08905209600925446
1718308903060763100,21.98176318359375,-0.057739660143852234,0.3241148591041565,-0.022178322076797485
1718308903110534100,22.0315341796875,0.020341889932751656,0.017498135566711426,0.03670981153845787
1718308903160304400,22.081304443359375,-0.012446052394807339,-0.014780443161725998,0.07965102046728134
1718308903210075100,22.1310751953125,-0.06579126417636871,0.15036706626415253,0.03384480997920036
1718308903259845400,22.180845458984376,0.028563495725393295,0.021037910133600235,-0.05936840549111366
1718308903309616400,22.230616455078124,-0.009197363629937172,0.0036730824504047632,-0.03380231559276581
1718308903359386000,22.28038623046875,-0.11895625293254852,0.026472987607121468,0.03793127089738846
1718308903409157400,22.330157470703124,-0.04476930573582649,-0.1747177541255951,0.09603316336870193
1718308903458927000,22.379927001953124,0.057764723896980286,-0.16696229577064514,0.16838347911834717
1718308903508698000,22.429697998046876,0.049784861505031586,-0.1024945080280304,0.23251841962337494
1718308903558468400,22.47946826171875,-0.0012666723923757672,0.021141989156603813,0.21810686588287354
1718308903608239000,22.529239013671877,0.06802108883857727,-0.15520286560058594,0.1423901617527008
1718308903658009300,22.57900927734375,0.0602107048034668,-0.20506665110588074,0.019063405692577362
1718308903707779300,22.628779296875,-0.03195863589644432,-0.057247355580329895,-0.07388757169246674
1718308903757549600,22.678549560546877,-0.007273931987583637,0.0027090166695415974,-0.07743008434772491
1718308903807319300,22.7283193359375,0.003427848918363452,0.18042536079883575,-0.09926197677850723
1718308903857090600,22.778090576171873,-0.031080856919288635,0.2464779019355774,-0.15627272427082062
1718308903906860500,22.827860595703125,-0.08237181603908539,0.1593313068151474,-0.18632961809635162
1718308903956631300,22.87763134765625,-0.04785837233066559,0.026769662275910378,-0.20235082507133484
1718308904006401500,22.927401611328126,0.03242131695151329,-0.04862198606133461,-0.1723276823759079
1718308904056172500,22.977172607421874,0.019462205469608307,-0.02141350880265236,-0.07812986522912979
1718308904105942500,23.026942626953126,-0.01501644030213356,-0.09253199398517609,-0.03484966233372688
1718308904155713500,23.076713623046874,0.003972962964326143,-0.0712815597653389,0.05276860296726227
1718308904205483500,23.1264833984375,0.0058586811646819115,0.06942395865917206,0.05946054682135582
1718308904255253500,23.17625341796875,-0.0012349828612059355,-0.04558646306395531,0.01655503734946251
1718308904305024500,23.2260244140625,-0.006097780540585518,-0.18358254432678223,-0.031000861898064613
1718308904354794500,23.27579443359375,-0.050422731786966324,-0.05386211723089218,0.09634090960025787
1718308904404565500,23.3255654296875,0.0371796153485775,-0.04755878075957298,0.18377326428890228
1718308904454335500,23.37533544921875,0.02819141186773777,0.01901078037917614,0.2647368013858795
1718308904504105500,23.42510546875,-0.0011795253958553076,-0.038316935300827026,0.2004803717136383
1718308904553876700,23.474876708984375,0.053577031940221786,0.0188947394490242,0.18427824974060059
1718308904603646500,23.524646484375,0.045942045748233795,-0.077598437666893,0.12174704670906067
1718308904653417500,23.57441748046875,0.01910640485584736,0.10233181715011597,0.05937059596180916
1718308904703188000,23.62418798828125,0.030250003561377525,0.04513019323348999,-0.03678959235548973
1718308904752958000,23.6739580078125,-0.04331839457154274,0.0340503491461277,-0.12517744302749634
1718308904802729200,23.723729248046876,-0.046233419328927994,-0.04411850869655609,-0.14767830073833466
1718308904852499000,23.7734990234375,-0.038889553397893906,-0.12850016355514526,-0.19389432668685913
1718308904902270000,23.82327001953125,-0.026341138407588005,0.016815368086099625,-0.2463189959526062
1718308904952040000,23.8730400390625,0.019495029002428055,0.03749764710664749,-0.24636417627334595
1718308905001810200,23.92281005859375,0.06210942938923836,0.15495342016220093,-0.11278653144836426
1718308905051581000,23.972580810546877,0.06123298034071922,0.1624232977628708,-0.06579113006591797
1718308905101351000,24.022350830078125,-0.009447447955608368,0.07938500493764877,0.0036748573184013367
1718308905151121200,24.07212109375,0.001216815086081624,-0.03128161281347275,0.013253508135676384
1718308905200892000,24.121891845703125,-0.0071081556379795074,-0.11494217813014984,0.0030452716164290905
1718308905250662100,24.171662109375,-0.00529870018362999,-0.15447166562080383,-0.05671890825033188
1718308905300433000,24.221432861328125,-0.0363178476691246,-0.09639987349510193,0.030034426599740982
1718308905350203100,24.271203125,-0.05485464632511139,0.00661107525229454,0.1018800288438797
1718308905399972900,24.320972900390625,-0.03536289557814598,-0.00492227403447032,0.1756916642189026
1718308905449744000,24.370743896484374,0.019544126465916634,-0.0468960665166378,0.25596699118614197
1718308905499514000,24.42051416015625,-0.008475159294903278,0.0018595134606584907,0.23259930312633514
1718308905549284000,24.4702841796875,0.017678312957286835,0.05807133764028549,0.19121481478214264
1718308905599055000,24.52005517578125,0.09305895864963531,-0.1223863959312439,0.08516620099544525
1718308905648824800,24.569824951171874,-0.013467423617839813,0.09779243171215057,-0.009676052257418633
1718308905698595300,24.61959521484375,-0.0012252731248736382,0.07125415652990341,-0.052597057074308395
1718308905748366300,24.669366455078126,0.030939891934394836,-0.10877751559019089,-0.06409841775894165
1718308905798136600,24.719136474609375,-0.04083859547972679,-0.020360305905342102,-0.1291758120059967
1718308905847907300,24.7689072265625,-0.028116775676608086,0.022632120177149773,-0.21000675857067108
1718308905897677300,24.81867724609375,0.00005335090099833906,-0.03026377595961094,-0.22547392547130585
1718308905947447300,24.868447265625,-0.000028714828658849,0.10598869621753693,-0.16967974603176117
1718308905997218300,24.91821826171875,0.0012427718611434102,0.17322896420955658,-0.07719527930021286
1718308906046988300,24.96798828125,0.00539864506572485,0.15356986224651337,-0.05025152862071991
1718308906096758300,25.01775830078125,0.0028809206560254097,0.08837094157934189,-0.00954003632068634
1718308906146528300,25.0675283203125,-0.014364843256771564,0.019575851038098335,-0.012520527467131615
1718308906196299300,25.11729931640625,-0.013919631019234657,-0.06379089504480362,0.008220052346587181
1718308906246069500,25.167069580078124,-0.011813037097454071,-0.049257129430770874,-0.0032561509869992733
1718308906295839200,25.216839111328124,-0.027457550168037415,-0.0043523870408535,0.04414541646838188
1718308906345610500,25.266610595703124,-0.022516021504998207,-0.12236388027667999,0.03970582038164139
1718308906395380200,25.316380126953124,-0.06240005046129227,0.02346045896410942,0.2379516065120697
1718308906445150500,25.366150390625,0.01793493516743183,-0.1604296714067459,0.2252059280872345
1718308906494921500,25.41592138671875,0.057614900171756744,0.09821577370166779,0.19196423888206482
1718308906544691200,25.465691162109376,0.10439392179250717,-0.03112444467842579,0.12387950718402863
1718308906594461400,25.51546142578125,0.01693481020629406,-0.06514906138181686,0.16188111901283264
1718308906644231400,25.5652314453125,-0.006687819492071867,0.2224205881357193,0.0854702964425087
1718308906694001700,25.615001708984376,0.07290583848953247,0.11769796162843704,0.016088835895061493
1718308906743771600,25.664771728515625,0.032829154282808304,0.05641431361436844,-0.0158387478441
1718308906793541600,25.714541748046877,-0.03885657340288162,0.012086048722267151,-0.14348244667053223
1718308906843312600,25.764312744140625,-0.0641377717256546,-0.0791834145784378,-0.1384650468826294
1718308906893082600,25.81408251953125,-0.013598533347249031,0.004680786281824112,-0.20981228351593018
1718308906942852600,25.8638525390625,-0.016135022044181824,0.196031853556633,-0.19895011186599731
1718308906992622600,25.91362255859375,0.007937724702060223,0.20501014590263367,-0.1889384239912033
1718308907042393600,25.9633935546875,0.0321849100291729,0.1354193389415741,-0.1305142045021057
1718308907092163600,26.01316357421875,-0.010386152192950249,0.10432086139917374,0.0054481616243720055
1718308907141933600,26.06293359375,-0.038604382425546646,-0.04543700069189072,0.03919679671525955
1718308907191703600,26.11270361328125,-0.012296076864004135,-0.01950763911008835,-0.007040935102850199
1718308907241474600,26.162474609375,0.027325166389346123,0.04163606837391853,-0.010359717532992363
1718308907291244800,26.212244873046874,0.033590324223041534,0.0896107405424118,0.031457092612981796
1718308907341014500,26.2620146484375,-0.03359284624457359,0.05167356878519058,0.0684090107679367
1718308907390784800,26.31178466796875,-0.056855425238609314,-0.07625415921211243,0.11648748815059662
1718308907440555500,26.361555419921874,0.012610340490937233,-0.09314907342195511,0.21382972598075867
1718308907490325800,26.41132568359375,0.010811536572873592,-0.1962081640958786,0.21438544988632202
1718308907540095500,26.461095458984374,-0.010850181803107262,-0.013903888873755932,0.19462831318378448
1718308907589865700,26.51086572265625,0.006155065726488829,-0.11680741608142853,0.026129040867090225
1718308907639636700,26.56063671875,0.029503636062145233,0.03242555260658264,-0.056885600090026855
1718308907689406700,26.61040673828125,0.03068714775145054,-0.07435253262519836,0.00839174259454012
1718308907739176400,26.660176513671875,-0.04439172521233559,0.025233661755919456,0.021000999957323074
1718308907788946700,26.70994677734375,-0.02159138210117817,-0.02212473191320896,-0.05809905752539635
1718308907838717700,26.7597177734375,-0.017010679468512535,-0.05779385194182396,-0.15000656247138977
1718308907888487700,26.80948779296875,-0.02241239883005619,-0.03223529830574989,-0.2038688212633133
1718308907938257700,26.859257568359375,-0.009274098090827465,-0.04436590149998665,-0.21119435131549835
1718308907988027600,26.909027587890623,-0.016255700960755348,0.01567739062011242,-0.15768925845623016
1718308908037797600,26.958797607421875,0.009327518753707409,0.19460293650627136,-0.08889861404895782
1718308908087568600,27.008568603515624,0.019345102831721306,0.2474246472120285,-0.04239874333143234
1718308908137338600,27.058338623046875,-0.018716590479016304,0.11254898458719254,-0.038319751620292664
1718308908187108600,27.108108642578124,-0.001826263265684247,-0.07263840734958649,-0.012377883307635784
1718308908236878600,27.157878662109376,0.030710607767105103,-0.04419567435979843,-0.04102087393403053
1718308908286648600,27.207648681640624,0.004560389090329409,-0.11707690358161926,-0.005286198575049639
1718308908336419600,27.257419677734376,-0.042015865445137024,-0.15801090002059937,0.02069476619362831
1718308908386189800,27.30718994140625,-0.05252543464303017,-0.043151259422302246,0.10436567664146423
1718308908435959600,27.35695947265625,0.01952405832707882,-0.10926961153745651,0.2262490838766098
1718308908485729800,27.406729736328124,-0.00426495261490345,-0.09408627450466156,0.259367436170578
1718308908535499500,27.45649951171875,-0.0036482694558799267,-0.08427472412586212,0.1553666591644287
1718308908585270500,27.5062705078125,0.09844951331615448,-0.053063251078128815,0.0703371986746788
1718308908635040500,27.55604052734375,0.0906355232000351,0.07164451479911804,0.01828070729970932
1718308908684810500,27.605810546875,0.004366181790828705,0.0857601910829544,-0.020849954336881638
1718308908734580500,27.65558056640625,-0.025201497599482536,-0.08542627841234207,-0.06183329224586487
1718308908784350500,27.7053505859375,0.0005676134023815393,-0.1976284235715866,-0.14398175477981567
1718308908834120400,27.755120361328125,-0.015940388664603233,-0.16358454525470734,-0.18399344384670258
1718308908883891500,27.804891357421877,-0.04240022599697113,-0.12485767155885696,-0.18207836151123047
1718308908933661400,27.854661376953125,-0.034918639808893204,-0.011071547865867615,-0.14423474669456482
1718308908983431700,27.904431640625,-0.0006470573716796935,0.06297570466995239,-0.1687398999929428
1718308909033201400,27.954201416015625,0.06303175538778305,0.18772101402282715,-0.15411131083965302
1718308909082971600,28.0039716796875,0.03517761081457138,0.06092771142721176,-0.10162524878978729
1718308909132741400,28.053741455078125,-0.002997027710080147,-0.10764580219984055,0.0004073851741850376
1718308909182512600,28.1035126953125,-0.03937574103474617,-0.1194000095129013,0.07065203785896301
1718308909232282400,28.153282470703125,-0.09785875678062439,0.02120477892458439,0.1751217097043991
1718308909282052600,28.203052490234374,-0.05174117162823677,-0.09861943125724792,0.0753156766295433
1718308909331822300,28.252822265625,0.01854131370782852,0.006228610407561064,-0.023048657923936844
1718308909381592600,28.302592529296874,0.008069866336882114,0.02397676557302475,0.02526136115193367
1718308909431362300,28.3523623046875,0.01994713395833969,-0.009857849217951298,0.14378215372562408
1718308909481132500,28.402132568359374,0.08054430037736893,-0.013693747110664845,0.2377721220254898
1718308909530903600,28.451903564453126,0.06718621402978897,-0.023961663246154785,0.25573620200157166
1718308909580673500,28.501673583984374,0.05762765556573868,0.05809369683265686,0.24135378003120422
1718308909630443500,28.551443603515626,0.0967937782406807,-0.10966707766056061,0.16685369610786438
1718308909680214500,28.601214599609374,0.023089252412319183,-0.10101062059402466,0.019955437630414963
1718308909729984300,28.650984375,-0.025317654013633728,0.0926162526011467,-0.070311039686203
1718308909779754500,28.70075439453125,0.01850801892578602,0.11901503056287766,-0.14476963877677917
1718308909829524200,28.750524169921874,0.010904639959335327,0.09395033121109009,-0.18346166610717773
1718308909879295200,28.800295166015626,-0.04325138404965401,0.17309881746768951,-0.1871005743741989
1718308909929065500,28.8500654296875,-0.037315625697374344,0.1057126373052597,-0.24304799735546112
1718308909978835500,28.89983544921875,0.04733354225754738,0.12741173803806305,-0.21461763978004456
1718308910028605400,28.94960546875,0.04085690528154373,0.0900113433599472,-0.138748899102211
1718308910078375400,28.99937548828125,-0.01609589345753193,0.04269139841198921,-0.04730543494224548
1718308910128145400,29.0491455078125,-0.00680262828245759,-0.018897710368037224,0.010542942211031914
1718308910177915400,29.098915283203127,-0.006933389697223902,0.016171595081686974,0.05066373199224472
1718308910227685400,29.148685302734375,0.01800508424639702,0.008489487692713737,0.00808805227279663
1718308910277456400,29.198456298828123,-0.038425836712121964,-0.09151025116443634,0.013123316690325737
1718308910327226400,29.248226318359375,-0.10550719499588013,0.02722078375518322,0.08780083805322647
1718308910376996400,29.297996337890623,-0.09920196235179901,-0.07250787317752838,0.14455649256706238
1718308910426766300,29.347766357421875,0.018223103135824203,-0.08792226761579514,0.2850886285305023
1718308910476536300,29.397536376953123,0.008886986412107944,-0.13017535209655762,0.3072589337825775
1718308910526306300,29.447306396484375,-0.006082476582378149,-0.04955592378973961,0.2804800271987915
1718308910576076300,29.497076171875,0.012290332466363907,-0.18529215455055237,0.16134947538375854
1718308910625846300,29.54684619140625,0.10305532813072205,-0.25252169370651245,0.007673641666769981
1718308910675616300,29.5966162109375,0.04076685756444931,-0.2180139571428299,-0.027549302205443382
1718308910725387300,29.64638720703125,-0.021451208740472794,-0.19306987524032593,-0.09163937717676163
1718308910775157200,29.6961572265625,-0.002301087137311697,0.171418696641922,-0.1133638247847557
1718308910824927200,29.74592724609375,0.043266069144010544,0.2851487994194031,-0.11203095316886902
1718308910874697200,29.795697265625,-0.028761059045791626,0.24724674224853516,-0.1273551732301712
1718308910924467200,29.84546728515625,-0.0912717953324318,0.3432309329509735,-0.1039491519331932
1718308910974237200,29.8952373046875,-0.01799316331744194,0.2360445111989975,-0.16944454610347748
1718308911024007400,29.94500732421875,0.03270413726568222,0.11713343113660812,-0.1401607245206833
1718308911073777200,29.994777099609376,0.008354121819138527,0.025505684316158295,-0.07561478018760681
1718308911123547400,30.04454736328125,0.0026740923058241606,-0.10643358528614044,-0.06067155674099922
1718308911173317000,30.094317138671876,-0.0011358619667589664,-0.051884714514017105,0.022630294784903526
1718308911223088400,30.14408837890625,0.00922827236354351,-0.03519170358777046,-0.01704893261194229
1718308911272858000,30.193858154296876,0.0027767589781433344,0.16648809611797333,-0.1478065550327301
1718308911322628400,30.24362841796875,-0.01248298678547144,0.18892653286457062,0.007888292893767357
1718308911372398000,30.293398193359376,-0.04068519547581673,-0.05084118992090225,0.09058699756860733
1718308911422168300,30.343168212890625,-0.14585155248641968,-0.055250030010938644,0.23385901749134064
1718308911471938000,30.39293798828125,-0.05420798808336258,-0.5570600628852844,0.03667246177792549
1718308911521708300,30.442708251953125,0.015145313926041126,-0.33612483739852905,-0.046944160014390945
1718308911571478000,30.49247802734375,0.06069239228963852,0.1126473918557167,-0.16297416388988495
1718308911621248300,30.542248291015625,0.14058876037597656,0.1607244461774826,-0.08752951771020889
1718308911671018200,30.592018310546877,0.028560955077409744,0.1289263665676117,0.10124754905700684
1718308911720789500,30.64178955078125,-0.03578314185142517,-0.05984937772154808,0.17008286714553833
1718308911770559200,30.691559326171873,-0.09487184137105942,-0.054281774908304214,0.21108198165893555
1718308911820329500,30.74132958984375,-0.06961025297641754,0.0337759368121624,-0.04259270429611206
1718308911870099200,30.79109912109375,0.03409217670559883,0.004858002066612244,-0.291974276304245
1718308911919869400,30.840869384765625,0.01854437030851841,-0.037139832973480225,-0.16163668036460876
1718308911969639400,30.890639404296873,-0.025349851697683334,-0.20314718782901764,-0.09634821861982346
1718308912019409400,30.940409423828125,-0.0541110560297966,0.07601618766784668,-0.015938622877001762
1718308912069179400,30.990179443359374,0.010976068675518036,0.1054782047867775,-0.04533885419368744
1718308912118949400,31.039949462890625,0.1378060132265091,0.04822772368788719,-0.0739029198884964
1718308912168719400,31.08971923828125,0.030045073479413986,0.1902569681406021,-0.036928873509168625
1718308912218490400,31.139490478515626,0.004528059624135494,0.0504976361989975,-0.028908520936965942
1718308912268260400,31.18926025390625,0.03465733304619789,-0.027737636119127274,0.07056950032711029
1718308912318030300,31.2390302734375,0.0009385825251229107,0.057942282408475876,0.014413001015782356
1718308912367800600,31.288800537109374,-0.0960473120212555,0.2787352502346039,0.030548062175512314
1718308912417570300,31.3385703125,-0.024915948510169983,0.02895822934806347,-0.01772131957113743
1718308912467340500,31.388340576171874,-0.04223388433456421,-0.02158517763018608,-0.011762447655200958
1718308912517110300,31.4381103515625,0.04827909916639328,0.00612990278750658,0.0679587721824646
1718308912566880500,31.487880615234374,0.05266163498163223,-0.09250251948833466,0.174241304397583
1718308912616650200,31.537650146484374,0.021190926432609558,0.1794918328523636,0.22155484557151794
1718308912666421500,31.58742138671875,-0.008296862244606018,0.18694938719272614,0.19994114339351654
1718308912716191200,31.637191162109374,0.09232618659734726,0.10002339631319046,0.15192511677742004
1718308912765961500,31.68696142578125,-0.026301328092813492,-0.04383876919746399,0.09195290505886078
1718308912815731200,31.736731201171875,-0.037804652005434036,-0.018374882638454437,0.031877804547548294
1718308912865501400,31.78650146484375,-0.046530961990356445,-0.11973243951797485,-0.05053812265396118
1718308912915271200,31.836271240234375,-0.028975103050470352,-0.008802342228591442,-0.17674270272254944
1718308912965041400,31.88604150390625,0.00079297338379547,-0.08012085407972336,-0.13289330899715424
1718308913014811400,31.935811279296875,-0.019272811710834503,-0.1807473748922348,-0.05127263441681862
1718308913064581400,31.985581298828127,-0.012483575381338596,-0.1151043027639389,-0.131137877702713
1718308913114352400,32.03535229492188,-0.02997671067714691,0.22365331649780273,-0.1094876229763031
1718308913164122400,32.08512231445312,0.035148557275533676,0.22353096306324005,-0.10407989472150803
1718308913213892400,32.134892333984375,0.07049260288476944,0.038021769374608994,-0.019556237384676933
1718308913263662300,32.18466235351563,0.011328937485814095,-0.0446162186563015,0.0733257457613945
1718308913313432600,32.2344326171875,0.0663415715098381,-0.23456618189811707,0.06366898119449615
1718308913363202300,32.28420239257812,-0.03314844146370888,0.2216615229845047,0.03576977178454399
1718308913412972500,32.33397265625,-0.0701935812830925,0.15857566893100739,-0.04657426476478577
1718308913462742300,32.3837421875,-0.21181507408618927,0.35062524676322937,0.05553026497364044
1718308913512513300,32.43351318359375,-0.013639294542372227,-0.05279781296849251,0.05771519988775253
1718308913562283300,32.483283203125,0.09062264114618301,0.10386021435260773,0.12653666734695435
1718308913612053500,32.53305346679687,-0.009822948835790157,0.07426811009645462,0.2584964632987976
1718308913661823200,32.5828232421875,0.019266225397586823,-0.07156552374362946,0.20024967193603516
1718308913711592400,32.63259252929687,-0.020350592210888863,-0.13286933302879333,0.11333175748586655
1718308913761362400,32.682362548828124,-0.002357868943363428,-0.19897279143333435,-0.047460537403821945
1718308913811132400,32.73213232421875,0.018592586740851402,-0.2586958110332489,-0.0643257424235344
1718308913860902700,32.78190258789063,-0.012136269360780716,-0.2546032667160034,-0.025494977831840515
1718308913910673700,32.831673583984376,-0.0912349745631218,-0.254770964384079,-0.042679209262132645
1718308913960443400,32.881443359375,-0.03505320101976395,-0.2608048915863037,-0.17486999928951263
1718308914010213600,32.93121362304687,0.05702352896332741,-0.15045106410980225,-0.1979133039712906
1718308914059983600,32.980983642578124,0.026353606954216957,0.01182742603123188,-0.09971732646226883
1718308914109753600,33.030753662109376,-0.021344583481550217,0.043386898934841156,-0.1112954244017601
1718308914159523600,33.08052368164063,0.02669491618871689,0.10577619075775146,-0.10210367292165756
1718308914209293600,33.13029345703125,0.08908116072416306,0.07669369876384735,-0.06837320327758789
1718308914259064300,33.180064208984376,0.05953029915690422,0.06779588758945465,0.0344986692070961
1718308914308834600,33.22983447265625,0.02866722270846367,-0.060118574649095535,0.01273893378674984
1718308914358604500,33.2796044921875,-0.02569478750228882,0.12090481072664261,-0.018793871626257896
1718308914408374500,33.32937451171875,-0.04114134982228279,0.07116161286830902,-0.04387183114886284
1718308914458144500,33.37914453125,-0.02245820313692093,-0.041460197418928146,-0.010814065113663673
1718308914507914500,33.42891455078125,-0.04726884886622429,0.015963073819875717,0.11013837158679962
1718308914557685500,33.478685546875,0.02293810062110424,-0.07327365130186081,0.15083812177181244
1718308914607455500,33.52845556640625,-0.021479563787579536,-0.03256681561470032,0.19240997731685638
1718308914657225700,33.578225830078125,0.010291350074112415,0.01971297338604927,0.19496282935142517
1718308914706995500,33.627995361328125,0.13481351733207703,-0.3688679337501526,0.10264018177986145
1718308914756765400,33.67776538085938,0.02989744022488594,-0.248755544424057,0.12750254571437836
1718308914806535400,33.72753540039062,0.01055170502513647,-0.2628205120563507,-0.04451289027929306
1718308914856306400,33.77730639648438,0.008115078322589397,-0.028759852051734924,-0.09158001095056534
1718308914906076400,33.82707641601562,-0.013227492570877075,0.1050160825252533,-0.14989358186721802
1718308914955846700,33.8768466796875,0.006175527349114418,0.16164664924144745,-0.20888951420783997
1718308915005616400,33.926616455078126,0.004314088728278875,0.04536064341664314,-0.12498825788497925
1718308915055386600,33.97638671875,-0.03986922279000282,0.040084484964609146,-0.04418553039431572
1718308915105156400,34.02615625,-0.026337865740060806,0.0977797880768776,-0.05047963187098503
1718308915154927600,34.075927734375,0.0343451164662838,0.12642771005630493,-0.08039803802967072
1718308915204697300,34.125697265625,0.09293406456708908,0.07085508108139038,-0.021785305812954903
1718308915254467600,34.175467529296874,0.11064264923334122,-0.05224399268627167,0.023552071303129196
1718308915304237300,34.2252373046875,-0.09860964119434357,0.06273958086967468,0.20103152096271515
1718308915354007600,34.27500756835938,-0.14503519237041473,-0.03991643711924553,0.0446188822388649
1718308915403778600,34.324778564453126,-0.021236682310700417,-0.08135619014501572,-0.06866583228111267
1718308915453548500,34.37454858398438,0.09602203220129013,0.03498959168791771,-0.03912632167339325
1718308915503318500,34.42431860351562,-0.04243943840265274,-0.01543177105486393,0.08728967607021332
1718308915553088500,34.474088623046875,-0.06166769191622734,-0.0216946043074131,0.214042529463768
1718308915602858500,34.5238583984375,0.04819744452834129,-0.02806844748556614,0.04889681935310364
1718308915652628500,34.57362841796875,0.0313459075987339,0.03967169672250748,-0.007450420409440994
1718308915702400500,34.623400390625,0.03560715168714523,0.09337588399648666,-0.03436633199453354
1718308915752170200,34.67317016601562,0.01454674918204546,-0.04397911578416824,-0.021583111956715584
1718308915801940500,34.7229404296875,-0.023614780977368355,0.023100249469280243,0.014773745089769363
1718308915851710200,34.77271020507813,0.006547648925334215,0.0016093386802822351,0.01171670202165842
1718308915901480400,34.82248046875,0.020636703819036484,0.02748422510921955,-0.09571504592895508
1718308915951250400,34.87225048828125,-0.007005943916738033,0.06226319447159767,-0.14747944474220276
1718308916001021400,34.922021484375,0.03879274055361748,0.0073582567274570465,-0.10297300666570663
1718308916050791400,34.97179150390625,-0.004557604435831308,0.04936923459172249,-0.008367501199245453
1718308916100561400,35.0215615234375,-0.008409899659454823,0.24294473230838776,0.01111176609992981
1718308916150331400,35.07133129882813,0.1007782369852066,-0.01446482539176941,-0.039642855525016785
1718308916200101400,35.12110131835937,0.11383745819330215,0.13842366635799408,0.00043016509152948856
1718308916249872400,35.17087231445313,0.08213475346565247,-0.07965537160634995,0.030774429440498352
1718308916299642400,35.22064233398437,-0.058771803975105286,0.08773458749055862,0.0541461743414402
1718308916349412400,35.270412353515624,-0.05912027508020401,-0.08611106872558594,0.012644777074456215
1718308916399182300,35.320182373046876,-0.04444223642349243,0.03806948661804199,0.030677780508995056
1718308916448952300,35.36995239257813,-0.04961555451154709,-0.0607256256043911,0.022891737520694733
1718308916498723600,35.4197236328125,-0.05539984628558159,-0.11224285513162613,0.15286245942115784
1718308916548493300,35.46949340820313,-0.018632441759109497,-0.4095480740070343,0.08348456770181656
1718308916598263600,35.519263671875,-0.0289217010140419,-0.2638256549835205,0.07314061373472214
1718308916648033300,35.569033203125,0.04311281070113182,-0.06139880418777466,0.04849465563893318
1718308916697803000,35.618802978515625,0.07148034125566483,0.062404341995716095,0.08480465412139893
1718308916747574000,35.66857397460937,0.03389451652765274,0.23219892382621765,0.1053975373506546
1718308916797344000,35.718343994140625,-0.0405539870262146,0.18757787346839905,0.06896094977855682
1718308916847114000,35.76811401367188,-0.0027312771417200565,-0.07347195595502853,-0.00964354258030653
1718308916896884000,35.81788403320313,-0.014615325257182121,-0.1259744018316269,-0.032477911561727524
1718308916946654200,35.867654296875,-0.0676884725689888,0.04389854148030281,-0.17571330070495605
1718308916996424000,35.917423828125,-0.04563572630286217,0.16685084998607635,-0.2815095782279968
1718308917046195000,35.96719482421875,0.10279611498117447,0.14503693580627441,-0.15955068171024323
1718308917095965000,36.01696484375,0.07041367888450623,0.02182769402861595,0.02518361806869507
1718308917145735000,36.06673486328125,-0.07276441901922226,0.035023413598537445,0.07294654846191406
1718308917195505000,36.1165048828125,0.00547759048640728,0.18346461653709412,-0.01551598496735096
1718308917245275100,36.166275146484374,0.08143863826990128,0.15116038918495178,-0.06376010179519653
1718308917295046100,36.21604614257812,0.1613854020833969,-0.006972554139792919,-0.018039291724562645
1718308917344815900,36.26581591796875,-0.04831817001104355,0.046808481216430664,0.11330091208219528
1718308917394586000,36.315586181640626,-0.08827896416187286,0.09186825156211853,0.06849978864192963
1718308917444355800,36.36535595703125,-0.016329634934663773,-0.04923418164253235,-0.020129790529608727
1718308917494126000,36.4151259765625,-0.006944793276488781,-0.0876549780368805,-0.030572019517421722
1718308917543896800,36.464896728515626,-0.021178556606173515,-0.06078464910387993,0.1359017938375473
1718308917593667000,36.5146669921875,-0.0014587142504751682,-0.1774560660123825,0.1268472671508789
1718308917643436800,36.56443676757812,-0.040034838020801544,-0.05034597963094711,0.1469574123620987
1718308917693207300,36.614207275390626,-0.013850567862391472,-0.028651095926761627,0.052810076624155045
1718308917742977000,36.66397705078125,0.011448591947555542,0.04592995345592499,0.01897389069199562
1718308917792748300,36.71374829101563,0.047780007123947144,0.04413779452443123,-0.05232422426342964
1718308917842518000,36.76351806640625,0.0010603698901832104,-0.05200546607375145,-0.009188858792185783
1718308917892288300,36.81328833007812,-0.002983840648084879,-0.29488611221313477,-0.0674944594502449
1718308917942058000,36.86305810546875,-0.06673835217952728,-0.1614551693201065,-0.08561369776725769
1718308917991828200,36.912828125,-0.05016433820128441,-0.020101478323340416,-0.1804577112197876
1718308918041598200,36.96259814453125,0.0518065020442009,0.02638559602200985,-0.19213488698005676
1718308918091369200,37.012369140625,0.014091280288994312,-0.04827447980642319,-0.06489608436822891
1718308918141139000,37.06213891601563,-0.01497253030538559,0.08360917866230011,-0.016999084502458572
1718308918190909200,37.1119091796875,0.026138225570321083,0.05914163216948509,-0.007130283396691084
1718308918240679200,37.16167919921875,0.10286509245634079,0.3170289397239685,-0.07836681604385376
1718308918290449200,37.21144921875,0.19345451891422272,0.05971239507198334,-0.09458675235509872
1718308918340220200,37.26122021484375,-0.0406578853726387,0.02848825976252556,0.0708007737994194
1718308918389990100,37.310990234375,-0.11453872919082642,0.029363229870796204,0.03546964004635811
1718308918439760100,37.36076000976563,-0.08530668169260025,0.11363987624645233,0.002638022881001234
1718308918489530000,37.41053002929687,0.009605448693037033,0.0743187889456749,-0.10192953795194626
1718308918539300000,37.460300048828124,-0.07807782292366028,0.26093414425849915,0.11063624173402786
1718308918589071000,37.51007104492187,-0.01984764263033867,0.27427148818969727,0.3040916919708252
1718308918638841000,37.559841064453124,-0.0066662561148405075,-0.14669999480247498,0.19113978743553162
1718308918688611000,37.609611083984376,-0.08340714871883392,-0.11668580770492554,0.12893542647361755
1718308918738381000,37.65938110351563,0.06865271925926208,-0.24920806288719177,-0.09595824778079987
1718308918788151000,37.70915112304687,0.11728284507989883,-0.01940014772117138,0.008939208462834358
1718308918837921000,37.758921142578124,0.03858740255236626,-0.05772678554058075,0.051607366651296616
1718308918887692300,37.8086923828125,-0.04055672511458397,-0.08682678639888763,0.03024950996041298
1718308918937462000,37.8584619140625,-0.03709094971418381,-0.08040844649076462,-0.07642011344432831
1718308918987232300,37.90823217773438,0.00011331692803651094,-0.0009972427505999804,-0.20883367955684662
1718308919037002000,37.958001953125,0.05394048988819122,-0.0710454061627388,-0.19620245695114136
1718308919086772200,38.00777221679687,-0.04594099521636963,-0.0666138306260109,-0.08212801069021225
1718308919136543000,38.05754296875,-0.033207785338163376,0.018350405618548393,-0.049336690455675125
1718308919186313200,38.10731323242187,0.0036559468135237694,0.06977144628763199,-0.03268522396683693
1718308919236083000,38.1570830078125,0.0564599372446537,-0.02114865928888321,-0.03216804936528206
1718308919285853200,38.20685327148438,0.08605015277862549,0.20595137774944305,-0.003972086124122143
1718308919335623000,38.25662280273438,0.06859896332025528,-0.22074168920516968,0.061768755316734314
1718308919385393200,38.30639306640625,-0.05859144404530525,-0.10419338196516037,0.053453534841537476
1718308919435164200,38.3561640625,-0.05859081819653511,0.03624439984560013,0.07476234436035156
1718308919484934100,38.40593408203125,0.023663083091378212,0.10167894512414932,-0.010745063424110413
1718308919534704000,38.4557041015625,-0.08423522859811783,-0.15113385021686554,-0.054626159369945526
1718308919584474000,38.50547412109375,-0.12703678011894226,-0.06316651403903961,0.13796237111091614
1718308919634244000,38.555244140625,-0.003658491186797619,-0.254192978143692,0.11959800869226456
1718308919684013800,38.60501391601562,0.04762633517384529,0.04403305798768997,0.1781521737575531
1718308919733784600,38.65478466796875,0.07465885579586029,0.0715201199054718,0.040485404431819916
1718308919783554800,38.70455493164062,0.04540063068270683,0.08878692239522934,0.02360926754772663
1718308919833324500,38.75432446289062,-0.020556820556521416,0.03460938483476639,0.04922766610980034
1718308919883094800,38.8040947265625,-0.024734744802117348,-0.15221385657787323,-0.0021315524354577065
1718308919932864800,38.85386474609375,-0.06659743934869766,-0.15937992930412292,-0.0636318102478981
1718308919982634800,38.903634765625,-0.049583908170461655,-0.09758927673101425,-0.15092356503009796
1718308920032405800,38.95340576171875,0.039919547736644745,-0.14026980102062225,-0.16857658326625824
1718308920082175700,39.00317578125,0.022733237594366074,-0.0525246188044548,-0.10027751326560974
1718308920131945700,39.05294580078125,-0.015648210421204567,0.027510900050401688,-0.051586318761110306
1718308920181715700,39.1027158203125,0.030694592744112015,0.034007661044597626,-0.10550235956907272
1718308920231486000,39.15248583984375,0.06660661101341248,0.08351659774780273,-0.08227074146270752
1718308920281255700,39.20225561523438,0.1455828845500946,0.005108268931508064,-0.09264436364173889
1718308920331026700,39.25202661132813,0.088214211165905,0.17862538993358612,0.008099865168333054
1718308920380796700,39.30179663085938,-0.06246957555413246,0.0707564502954483,0.09627845883369446
1718308920430567000,39.35156689453125,-0.04455013573169708,-0.04769643023610115,0.025413475930690765
1718308920480336600,39.401336669921875,-0.08815626800060272,0.10990900546312332,0.008012404665350914
1718308920530107000,39.45110693359375,0.002386417705565691,-0.2853102385997772,-0.023829679936170578
1718308920579876600,39.50087670898437,-0.01769561506807804,-0.09589429944753647,0.139588862657547
1718308920629646800,39.55064672851562,-0.07946201413869858,0.14612668752670288,0.25494250655174255
1718308920679417900,39.60041796875,-0.044280052185058594,0.11489475518465042,0.3195628225803375
1718308920729188000,39.65018798828125,-0.049214523285627365,0.14864449203014374,0.1540004462003708
1718308920778958300,39.69995825195313,-0.02538488805294037,0.08476947247982025,-0.051786504685878754
1718308920828728300,39.74972827148437,0.009085800498723984,0.012197966687381268,-0.06275102496147156
1718308920878498300,39.799498291015624,0.016666678711771965,-0.14590591192245483,-0.059550438076257706
1718308920928268300,39.849268310546876,-0.07377296686172485,-0.12182915210723877,-0.006217529531568289
1718308920978038300,39.89903833007813,-0.06991960108280182,-0.12704482674598694,-0.12544168531894684
1718308921027809000,39.94880908203125,0.04206908121705055,-0.12909384071826935,-0.2575222849845886
1718308921077579300,39.99857934570313,0.06982990354299545,-0.07463718950748444,-0.1435208022594452
1718308921127349200,40.04834936523437,0.041607655584812164,-0.12466602027416229,-0.06743223965167999
1718308921177119200,40.098119140625,0.014532688073813915,0.02913593500852585,0.0016298270784318447
1718308921226889200,40.14788916015625,0.04998762905597687,0.0031366341281682253,-0.005106956232339144
1718308921276659200,40.1976591796875,0.10030489414930344,0.1964918076992035,-0.040267981588840485
1718308921326429200,40.24742919921875,0.06299296766519547,0.20898078382015228,0.024735869839787483
1718308921376200200,40.2972001953125,-0.043967075645923615,0.15985114872455597,0.07747727632522583
1718308921425970400,40.34697045898437,-0.00402867654338479,-0.04764331132173538,-0.04712134599685669
1718308921475740200,40.396740234375,-0.07065088301897049,0.2398083359003067,-0.07170940190553665
1718308921525510400,40.44651049804688,-0.11581239849328995,0.05584678798913956,-0.06216256320476532
1718308921575280000,40.49628002929688,-0.08861912786960602,-0.05168710649013519,0.12686282396316528
1718308921625050400,40.54605029296875,-0.04821391403675079,-0.07858559489250183,0.24411800503730774
1718308921674820000,40.59582006835937,0.017760837450623512,0.09999264776706696,0.20160189270973206
1718308921724589600,40.64558959960937,0.09153932332992554,0.14940641820430756,0.05745420977473259
1718308921774360600,40.69536059570312,0.057739850133657455,0.18144303560256958,0.047346409410238266
1718308921824130600,40.74513061523437,-0.01646207459270954,-0.055424220860004425,0.0010366067290306091
1718308921873900500,40.794900634765625,-0.02081947959959507,-0.2763303518295288,-0.01670866459608078
1718308921923670500,40.84467041015625,0.005151739344000816,-0.16942045092582703,-0.02344413846731186
1718308921973440800,40.89444067382812,0.014674440026283264,-0.06218308210372925,-0.06270742416381836
1718308922023210500,40.94421044921875,-0.03412619233131409,-0.005779172293841839,-0.17998817563056946
1718308922072980700,40.993980712890625,-0.04610945284366608,0.0729299932718277,-0.13715782761573792
1718308922122751700,41.043751708984374,0.05423103645443916,-0.10313092917203903,-0.058898475021123886
1718308922172521500,41.093521484375,-0.023004867136478424,-0.0752803161740303,-0.0008625169284641743
1718308922222291700,41.14329174804688,-0.0032482058741152287,0.1863129436969757,-0.06648068130016327
1718308922272061700,41.19306176757812,0.025398187339305878,0.33667880296707153,-0.061953023076057434
1718308922321831700,41.242831787109374,0.12389645725488663,0.18246477842330933,-0.03432151675224304
1718308922371601700,41.2926015625,0.10954085737466812,-0.23569121956825256,-0.01447770930826664
1718308922421371600,41.34237158203125,-0.0710650384426117,-0.13363993167877197,0.06609003990888596
1718308922471141600,41.3921416015625,-0.09276676923036575,-0.14640706777572632,0.061362676322460175
1718308922520911600,41.44191162109375,0.02718247100710869,-0.05901593342423439,-0.09728354215621948
1718308922570682600,41.4916826171875,-0.07977044582366943,0.1018083468079567,-0.025371745228767395
1718308922620452600,41.54145263671875,-0.1632968634366989,-0.0957641676068306,-0.0274125374853611
1718308922670222600,41.59122265625,-0.0841837003827095,-0.4340152442455292,-0.01841665990650654
1718308922719992800,41.64099291992188,-0.09639213979244232,-0.362093061208725,0.29298144578933716
1718308922769763000,41.69076318359375,-0.007737394887953997,-0.33543115854263306,0.2183593213558197
1718308922819532800,41.74053271484375,0.028239114210009575,-0.07364629954099655,0.07278730720281601
1718308922869303000,41.790302978515626,0.09095895290374756,0.06709561496973038,-0.007717456202954054
1718308922919072800,41.84007275390625,0.016529086977243423,-0.18878842890262604,0.05221397057175636
1718308922968843000,41.88984301757812,-0.023724183440208435,-0.20796696841716766,0.06562603265047073
1718308923018612700,41.93961279296875,-0.031169844791293144,-0.03341111168265343,-0.0256047360599041
1718308923068384000,41.98938403320312,-0.018521470949053764,0.12146244943141937,-0.08389691263437271
1718308923118154000,42.039154052734375,0.0006351826013997197,0.010734896175563335,-0.14661401510238647
1718308923167924000,42.08892407226563,-0.02251630462706089,0.0731748417019844,-0.07762336730957031
1718308923217694000,42.13869384765625,-0.04480200633406639,0.005715297069400549,-0.09307564049959183
1718308923267464000,42.1884638671875,0.009136459790170193,0.026524052023887634,-0.1288481056690216
1718308923317234000,42.23823388671875,0.025042684748768806,0.10101787000894547,-0.14914828538894653
1718308923367004000,42.28800390625,0.04234693944454193,0.2558330297470093,-0.13300107419490814
1718308923416774100,42.33777416992187,0.055190734565258026,0.2911100685596466,-0.028158418834209442
1718308923466543900,42.3875439453125,0.02361956052482128,0.130977064371109,0.07366359978914261
1718308923516314000,42.437314208984375,-0.06712642312049866,0.12666161358356476,0.021635539829730988
1718308923566084900,42.4870849609375,-0.03452393785119057,0.0446724034845829,0.03037688322365284
1718308923615855000,42.536855224609376,0.07249689102172852,-0.178532674908638,-0.019800521433353424
1718308923665625000,42.586625,0.008135577663779259,-0.03841332718729973,0.008107021450996399
1718308923715394800,42.63639477539063,-0.12432198971509933,0.06792693585157394,0.12429667264223099
1718308923765164500,42.68616455078125,-0.07333704084157944,0.0800282433629036,0.08987981826066971
1718308923814934800,42.735934814453124,-0.05351094529032707,0.1657213270664215,0.12573084235191345
1718308923864704800,42.785704833984376,0.07457469403743744,0.07029502093791962,0.1151570975780487
1718308923914474800,42.83547485351563,-0.023051364347338676,-0.10622108727693558,0.04882050305604935
1718308923964244700,42.88524462890625,0.023998059332370758,-0.31587591767311096,-0.054470159113407135
1718308924014014700,42.9350146484375,0.06654815375804901,-0.41104644536972046,-0.13115018606185913
1718308924063785700,42.98478564453125,0.10073654353618622,0.050488363951444626,-0.15663917362689972
1718308924113555700,43.0345556640625,0.11284257471561432,0.5399283766746521,-0.04798872396349907
1718308924163325700,43.08432568359375,0.19695846736431122,0.2780801057815552,-0.39670082926750183
1718308924213095700,43.134095703125,0.1989959180355072,0.029841117560863495,-0.5714533925056458
1718308924262865700,43.18386572265625,0.447541207075119,-0.18383356928825378,-1.202622652053833
1718308924312635600,43.2336357421875,1.3395092487335205,-0.6587934494018555,-2.100067377090454
1718308924362406000,43.283406005859376,1.256473183631897,-0.43554872274398804,-1.1601144075393677
1718308924412175600,43.333175537109376,-0.38301628828048706,0.5492669939994812,0.5514019727706909
1718308924461945900,43.38294580078125,-0.7565035223960876,0.6113701462745667,1.3967794179916382
1718308924511715600,43.43271557617187,-0.559079110622406,1.3207745552062988,2.5056748390197754
1718308924561486800,43.48248681640625,-0.24117574095726013,-1.4570451974868774,0.3341222405433655
1718308924611256800,43.5322568359375,-0.0010244038421660662,0.7973613142967224,0.18155521154403687
1718308924661026800,43.58202685546875,-0.04500943049788475,0.18658533692359924,0.5700677037239075
1718308924710796500,43.63179663085938,-0.11729224771261215,-0.6961076855659485,-0.5272656083106995
1718308924760566800,43.68156689453125,-0.3348809778690338,-0.10981931537389755,0.15180833637714386
1718308924810336500,43.73133642578125,-0.032678570598363876,-0.5288474559783936,-0.05135368928313255
1718308924860106800,43.781106689453125,-0.01902846246957779,0.07973658293485641,0.15076246857643127
1718308924909876500,43.83087646484375,-0.11247774958610535,0.12143545597791672,0.03595183417201042
1718308924959646700,43.88064672851562,-0.03497733548283577,-0.18613265454769135,-0.15327012538909912
1718308925009416700,43.93041674804687,0.06383662670850754,-0.14396730065345764,0.047722913324832916
1718308925059187700,43.98018774414062,0.02409866452217102,-0.07753168046474457,0.01072644628584385
1718308925108957400,44.02995751953125,-0.06555444747209549,0.18155522644519806,0.10638783872127533
1718308925158727700,44.079727783203126,-0.005338622722774744,0.13180570304393768,-0.03820484131574631
1718308925208497400,44.129497314453126,0.050831809639930725,-0.12100730091333389,-0.15076005458831787
1718308925258267600,44.179267578125,0.005608932115137577,0.040783680975437164,-0.13047143816947937
1718308925308037600,44.22903759765625,0.014929160475730896,0.11084786057472229,-0.1326000690460205
1718308925357807600,44.2788076171875,0.08627309650182724,0.1940668374300003,0.01704726554453373
1718308925407577600,44.32857763671875,0.0380643829703331,0.18736818432807922,0.05322564020752907
1718308925457347600,44.37834765625,0.04284125939011574,0.03599507361650467,0.17834824323654175
1718308925507118600,44.42811865234375,0.079643115401268,-0.22862304747104645,0.1664271354675293
1718308925556888600,44.477888671875,0.05310431867837906,-0.18573375046253204,0.11665201932191849
1718308925606658800,44.527658935546874,0.009335472248494625,0.08954296261072159,0.10782992839813232
1718308925656428500,44.577428466796874,-0.0672447681427002,0.40858912467956543,0.11484270542860031
1718308925706198500,44.627198486328126,0.04188268631696701,-0.06366895884275436,-0.009257805533707142
1718308925755968500,44.67696850585938,0.018997838720679283,-0.13183990120887756,-0.03711610287427902
1718308925805738500,44.72673852539062,-0.022229647263884544,-0.14048519730567932,-0.08435076475143433
1718308925855508500,44.776508544921874,-0.0010242958087474108,-0.43601134419441223,-0.0836760401725769
1718308925905278500,44.826278564453126,-0.20466619729995728,-0.16148923337459564,0.06858393549919128
1718308925955048400,44.87604833984375,-0.09507623314857483,-0.11712395399808884,-0.09140680730342865
1718308926004819500,44.9258193359375,0.027421055361628532,0.11546362936496735,-0.006946084555238485
1718308926054589400,44.97558935546875,0.09843134880065918,0.12384682893753052,0.05441543459892273
1718308926104359400,45.025359375,0.056119609624147415,0.04994604364037514,-0.024419905617833138
1718308926154129400,45.07512939453125,-0.04291346296668053,0.13340137898921967,0.08844482153654099
1718308926203899400,45.1248994140625,-0.03023424558341503,0.07982100546360016,0.10015681385993958
1718308926253669400,45.17466943359375,0.03906862437725067,-0.15523427724838257,0.019905878230929375
1718308926303439400,45.224439453125,0.01173077616840601,-0.05017619580030441,-0.05078518018126488
1718308926353209600,45.274209716796875,-0.0208194088190794,0.08595672994852066,-0.061635199934244156
1718308926402979300,45.323979248046875,0.028827399015426636,-0.007714468985795975,-0.09450249373912811
1718308926452750300,45.37375024414062,0.039482854306697845,-0.026051150634884834,-0.027846308425068855
1718308926502520600,45.4235205078125,0.03037886694073677,0.09083825349807739,0.037710417062044144
1718308926552290600,45.47329052734375,0.08764547854661942,-0.020049575716257095,0.04429556801915169
1718308926602060500,45.523060546875,0.1316450536251068,-0.1506347507238388,0.08342233300209045
1718308926651830500,45.57283056640625,-0.004222219344228506,-0.09224757552146912,0.11890129745006561
1718308926701601000,45.62260107421875,0.006066535133868456,0.11004208773374557,0.10212497413158417
1718308926751371000,45.67237109375,-0.0054809642024338245,0.2362649142742157,0.014997901394963264
1718308926801141000,45.72214111328125,0.047152455896139145,0.038445163518190384,-0.0010649911127984524
1718308926850911000,45.771910888671876,-0.033765729516744614,-0.10850031673908234,-0.02438555471599102
1718308926900682000,45.821681884765624,-0.11407218873500824,-0.11887919157743454,-0.055786751210689545
1718308926950452000,45.871451904296876,-0.033094409853219986,-0.1756848394870758,-0.12330039590597153
1718308927000222000,45.92122192382813,-0.026239966973662376,-0.026590440422296524,-0.05026692897081375
1718308927049992200,45.9709921875,-0.03995698317885399,0.13461744785308838,-0.030974963679909706
1718308927099762000,46.020761962890624,0.06612434983253479,-0.017770463600754738,0.07004852592945099
1718308927149532200,46.0705322265625,0.036779265850782394,0.11680915951728821,0.10247177630662918
1718308927199302000,46.12030200195313,0.014139247126877308,0.2565595209598541,0.09495917707681656
1718308927249072000,46.17007202148437,0.005681741051375866,0.028825363144278526,0.17392128705978394
1718308927298843000,46.2198427734375,-0.001370769925415516,-0.18486112356185913,0.15452247858047485
1718308927348613000,46.26961303710937,-0.0236675962805748,-0.03708567097783089,-0.0015151603147387505
1718308927398382800,46.3193828125,0.0004698723496403545,-0.06586695462465286,-0.14118362963199615
1718308927448153000,46.36915307617188,0.034151967614889145,-0.025627322494983673,-0.11539456248283386
1718308927497923000,46.41892309570313,0.019141262397170067,-0.116317979991436,-0.0861692875623703
1718308927547693000,46.46869311523437,-0.00045916985254734755,-0.06694912165403366,-0.04178338125348091
1718308927597463000,46.518463134765625,0.029492931440472603,0.04384946450591087,-0.03784112632274628
1718308927647233000,46.56823291015625,0.13610228896141052,-0.04942535609006882,0.11397384107112885
1718308927697003500,46.61800341796875,0.10071954876184464,-0.24564886093139648,0.05663539469242096
1718308927746773800,46.667773681640625,-0.008593936450779438,-0.11455971747636795,0.07520018517971039
1718308927796543500,46.71754345703125,-0.05186350271105766,0.04365994781255722,0.059462279081344604
1718308927846313700,46.76731372070312,-0.008908586576581001,-0.025106651708483696,0.025605637580156326
1718308927896083700,46.817083740234374,-0.006691200193017721,0.2377333790063858,0.04798847436904907
1718308927945853700,46.866853759765625,-0.014665096066892147,0.10536674410104752,-0.020657386630773544
1718308927995623700,46.91662377929688,-0.01526181772351265,-0.21124905347824097,-0.07418366521596909
1718308928045394700,46.966394775390626,0.0015693928580731153,-0.12332974374294281,-0.0804147720336914
1718308928095164400,47.016164306640626,-0.08352649211883545,-0.11103763431310654,-0.06548941135406494
1718308928144934700,47.0659345703125,-0.034978270530700684,-0.0020135827362537384,-0.034208960831165314
1718308928194704600,47.11570458984375,-0.06975098699331284,0.038873154670000076,0.1084786206483841
1718308928244474600,47.165474609375,0.002171063795685768,-0.03825382888317108,0.11734648048877716
1718308928294244600,47.21524462890625,0.06155426427721977,0.23923513293266296,0.027990132570266724
1718308928344014600,47.2650146484375,0.044413626194000244,0.2574320137500763,-0.04363258183002472
1718308928393784600,47.31478466796875,0.027930593118071556,0.22074133157730103,0.07639487832784653
1718308928443555600,47.3645556640625,0.008047702722251415,-0.1332060694694519,0.11605607718229294
1718308928493325800,47.414325927734374,-0.04864691197872162,0.09276684373617172,0.08710011839866638
1718308928543095600,47.464095458984374,-0.010742572136223316,0.03611930087208748,-0.08032435178756714
1718308928592865800,47.51386572265625,0.06423474103212357,-0.055709369480609894,-0.14906786382198334
1718308928642635500,47.56363549804688,0.04353944584727287,-0.02969815768301487,-0.10114657133817673
1718308928692406000,47.613406005859375,0.01232093945145607,-0.08898452669382095,-0.12380251288414001
1718308928742175700,47.66317578125,0.015669269487261772,0.13485318422317505,-0.1134883388876915
1718308928791947000,47.712947021484375,0.04825104400515556,-0.044652264565229416,-0.021265637129545212
1718308928841716700,47.762716796875,0.07172227650880814,-0.1786697804927826,-0.03792917728424072
1718308928891487000,47.81248706054687,-0.04456750676035881,-0.014186308719217777,0.14723500609397888
1718308928941256700,47.86225659179688,-0.05109954625368118,0.1023748517036438,0.13512606918811798
1718308928991027000,47.91202685546875,-0.015471145510673523,0.10563967376947403,0.027146346867084503
1718308929040796700,47.961796630859375,-0.02334248274564743,0.0434202142059803,-0.002189377788454294
1718308929090567000,48.01156689453125,0.006167965475469828,-0.18093207478523254,-0.038374848663806915
1718308929140336600,48.06133666992187,-0.025468820706009865,-0.21078459918498993,-0.05712571740150452
1718308929190108000,48.11110791015625,-0.05866791680455208,-0.18524472415447235,-0.07148025184869766
1718308929239878000,48.1608779296875,-0.007839884608983994,-0.07035111635923386,-0.08079664409160614
1718308929289647900,48.21064794921875,-0.036867015063762665,0.18961356580257416,-0.05276009440422058
1718308929339417900,48.26041796875,-0.027845734730362892,0.2727765738964081,0.031250376254320145
1718308929389187800,48.31018774414063,-0.02236296981573105,0.16038253903388977,0.05729585886001587
1718308929438957800,48.35995776367187,-0.06345748156309128,0.22331462800502777,0.09435108304023743
1718308929488727800,48.409727783203124,0.0033775775227695704,0.08800588548183441,0.05486048012971878
1718308929538498000,48.459498046875,0.027116326615214348,-0.0024115063715726137,0.04253574088215828
1718308929588268800,48.509268798828124,0.06322728842496872,-0.0952434241771698,0.023946814239025116
1718308929638038800,48.559038818359376,-0.02155722863972187,-0.06803104281425476,-0.013180002570152283
1718308929687808800,48.60880883789063,-0.03394602611660957,0.024972520768642426,-0.0918695256114006
1718308929737578500,48.65857861328125,0.02922242134809494,0.015415087342262268,-0.110651895403862
1718308929787348500,48.70834838867187,0.017140820622444153,-0.05172160640358925,-0.07173952460289001
1718308929837118500,48.758118408203124,-0.007179893087595701,0.005768828094005585,-0.009741205722093582
1718308929886888400,48.807888427734376,-0.0008140077698044479,0.016401086002588272,-0.00030499696731567383
1718308929936658400,48.85765844726563,-0.010964748449623585,0.08925500512123108,-0.01149747520685196
1718308929986429400,48.907429443359376,0.03890584036707878,0.03307419270277023,0.01410200260579586
1718308930036199700,48.95719970703125,0.041855085641145706,-0.16386933624744415,0.008713074028491974
1718308930085969400,49.00696948242187,-0.06083414703607559,-0.02123219147324562,0.07046408206224442
1718308930135739600,49.05673974609375,-0.04010152816772461,-0.036951735615730286,0.045330435037612915
1718308930185509400,49.10650927734375,-0.013523411005735397,0.016354747116565704,-0.01887894794344902
1718308930235279600,49.15627954101563,-0.01938243769109249,-0.016964036971330643,-0.04221002757549286
1718308930285049300,49.20604931640625,0.039516035467386246,-0.2141934633255005,-0.13941428065299988
1718308930334819600,49.255819580078125,-0.07520464807748795,0.07795172929763794,-0.06385529041290283
1718308930384590300,49.30559033203125,-0.028989316895604134,-0.05697950720787048,-0.02693297527730465
1718308930434360600,49.355360595703125,-0.06622280925512314,0.03195963799953461,-0.010776388458907604
1718308930484130300,49.40513037109375,-0.10594848543405533,-0.023099135607481003,-0.024935895577073097
1718308930533900500,49.45490063476562,0.002013539196923375,0.058187901973724365,0.006744245067238808
1718308930583670300,49.50467016601562,0.0689857080578804,0.10923658311367035,0.039533521980047226
1718308930633440500,49.5544404296875,0.07277825474739075,-0.032985180616378784,-0.01995721273124218
1718308930683210500,49.60421044921875,0.025764234364032745,0.061780210584402084,0.005559733137488365
1718308930732980500,49.65398046875,0.008497136645019054,-0.055895138531923294,0.016851836815476418
1718308930782750700,49.703750732421874,0.015514131635427475,-0.1467619091272354,0.02338477596640587
1718308930832521700,49.75352172851562,-0.011447549797594547,-0.09035809338092804,-0.047553662210702896
1718308930882291500,49.80329150390625,-0.023426184430718422,0.017790988087654114,-0.07829885929822922
1718308930932061700,49.853061767578126,-0.030170131474733353,0.12743011116981506,-0.05325230583548546
1718308930981831400,49.90283154296875,0.015269380994141102,0.1704367697238922,0.009241916239261627
1718308931031601700,49.9526015625,0.03326785936951637,0.10919909924268723,0.1257634311914444
1718308931081371600,50.00237158203125,-0.05672347918152809,0.3070538341999054,0.09209460765123367
1718308931131141600,50.0521416015625,0.033346988260746,0.06150917336344719,0.054177019745111465
1718308931180911600,50.10191162109375,0.04387839883565903,-0.2482115775346756,0.13728497922420502
1718308931230681600,50.151681640625,-0.03220067173242569,0.05698981508612633,0.1376488208770752
1718308931280452600,50.20145263671875,-0.03384190425276756,0.025932272896170616,0.06152547895908356
1718308931330222600,50.25122265625,-0.07199088484048843,0.18709346652030945,-0.032178640365600586
1718308931379992600,50.30099267578125,0.06488384306430817,-0.23972050845623016,-0.08232631534337997
1718308931429762600,50.350762451171875,-0.0008708413224667311,-0.12798947095870972,-0.10591226816177368
1718308931479532800,50.40053271484375,-0.03298882395029068,-0.05109201371669769,-0.09112686663866043
1718308931529302500,50.45030249023438,-0.042466484010219574,-0.009898502379655838,-0.03771476820111275
1718308931579072800,50.50007275390625,-0.0996016412973404,-0.024616871029138565,-0.015416959300637245
1718308931628842500,50.549842529296875,-0.023971127346158028,-0.212385356426239,-0.06647167354822159
1718308931678612700,50.59961279296875,0.08173446357250214,-0.04637424647808075,0.0435846745967865
1718308931728382500,50.64938256835938,0.06506186723709106,-0.006375867873430252,0.024356143549084663
1718308931778153500,50.69915356445313,-0.028245342895388603,0.07410833984613419,0.0061712199822068214
1718308931827923200,50.74892309570313,0.012862445786595345,-0.0702950730919838,0.0069695268757641315
1718308931877693400,50.798693359375,0.046537019312381744,-0.10392291098833084,0.05455978959798813
1718308931927463200,50.84846313476562,-0.009230606257915497,-0.07812317460775375,-0.021679427474737167
1718308931977233400,50.8982333984375,-0.028086217120289803,0.13527332246303558,-0.08440084755420685
1718308932027003400,50.94800341796875,0.013509699143469334,0.0572216771543026,-0.12139928340911865
1718308932076773400,50.9977734375,0.04631607607007027,0.00017211982049047947,-0.07897669076919556
1718308932126543400,51.04754345703125,0.041263699531555176,0.15872125327587128,-0.026927804574370384
1718308932176313300,51.097313232421875,0.012383411638438702,0.08165233582258224,0.026433628052473068
1718308932226083300,51.14708325195313,0.08668220788240433,0.04978324845433235,-0.014635803177952766
1718308932275853300,51.19685327148437,-0.01986446976661682,-0.10824468731880188,0.143904447555542
1718308932325623300,51.246623291015624,-0.060337673872709274,-0.15941122174263,0.11244579404592514
1718308932375394300,51.29639428710937,-0.03399084135890007,0.04979797080159187,0.04472587630152702
1718308932425164500,51.34616455078125,0.014517265371978283,0.12586648762226105,0.01770593971014023
1718308932474934300,51.395934326171876,-0.026916025206446648,0.055526286363601685,-0.015731247141957283
1718308932524704500,51.44570458984375,-0.023891009390354156,-0.3169194161891937,-0.12263944745063782
1718308932574474200,51.49547412109375,-0.09219083935022354,-0.023524155840277672,-0.041488561779260635
1718308932624244500,51.545244384765624,-0.0067468429915606976,-0.13599389791488647,-0.144401416182518
1718308932674014200,51.59501416015625,-0.09991095215082169,0.05796946585178375,-0.07325126230716705
1718308932723785000,51.64478491210937,-0.1564227193593979,-0.1598670333623886,-0.12770172953605652
1718308932773555000,51.694554931640624,-0.007238867226988077,-0.15225853025913239,-0.031686823815107346
1718308932823325000,51.744324951171876,0.08924417197704315,-0.16782070696353912,0.04919031262397766
1718308932873095000,51.79409497070313,0.06344815343618393,0.06733530014753342,0.09532903134822845
1718308932922865000,51.84386499023437,-0.005013122223317623,0.06253625452518463,-0.001532070804387331
1718308932972635100,51.89363525390625,-0.07878078520298004,-0.03288712725043297,0.08822613209486008
1718308933022404900,51.94340478515625,-0.03724173083901405,-0.09571359306573868,0.05188274383544922
1718308933072175900,51.99317578125,0.008948167786002159,-0.06922169774770737,-0.07849881052970886
1718308933121946000,52.04294604492188,0.007315380498766899,0.1601555347442627,-0.13944238424301147
1718308933171716000,52.09271606445313,0.013117201626300812,0.18954890966415405,-0.09440997987985611
1718308933221486000,52.14248608398437,0.08292815834283829,0.06284002959728241,-0.10793697088956833
1718308933271256000,52.192256103515625,0.07080840319395065,0.16467007994651794,-0.03627699986100197
1718308933321026000,52.24202612304688,0.04630495235323906,0.1723962277173996,0.04082445800304413
1718308933370796000,52.29179614257812,-0.015119887888431549,0.07712750136852264,0.16694577038288116
1718308933420566000,52.34156591796875,0.07240340113639832,-0.3001776933670044,0.12882095575332642
1718308933470336000,52.3913359375,-0.06812534481287003,-0.049885381013154984,0.14409522712230682
1718308933520106000,52.44110595703125,0.021006230264902115,-0.0676366314291954,0.018069399520754814
1718308933569876000,52.4908759765625,-0.012609069235622883,0.4247799515724182,0.07628941535949707
1718308933619646000,52.54064599609375,-0.05464289337396622,0.03221166506409645,0.03726666420698166
1718308933669416000,52.590416015625,-0.11844493448734283,0.19192630052566528,-0.05664936453104019
1718308933719185700,52.640185546875,-0.021645598113536835,-0.20051448047161102,-0.09801085293292999
1718308933768955600,52.68995556640625,-0.003696787403896451,0.12214666604995728,0.013546699658036232
1718308933818725600,52.7397255859375,-0.07730692625045776,0.10743771493434906,-0.04358344525098801
1718308933868495600,52.78949560546875,-0.08021622896194458,0.12547853589057922,-0.08413498103618622
1718308933918265600,52.839265625,0.023597341030836105,0.13284431397914886,0.02533518150448799
1718308933968035600,52.88903564453125,0.07922203093767166,-0.13026943802833557,0.09072042256593704
1718308934017805600,52.9388056640625,0.05747554823756218,-0.24221622943878174,0.03677016496658325
1718308934067575800,52.988575927734374,-0.01300141867250204,0.002508918521925807,0.019890811294317245
1718308934117345500,53.038345458984374,-0.0041323816403746605,0.09191182255744934,0.009814218617975712
1718308934167115800,53.08811572265625,0.03042711317539215,0.01159511599689722,-0.0049685267731547356
1718308934216885500,53.13788549804688,0.033894386142492294,-0.01684153638780117,-0.0038372036069631577
1718308934266656500,53.187656494140626,-0.009286473505198956,0.024050479754805565,-0.013994439505040646
1718308934316426500,53.23742651367188,0.022188259288668633,0.08980467915534973,-0.05576373636722565
1718308934366196700,53.28719677734375,0.025446441024541855,0.06490007042884827,-0.053581420332193375
1718308934415966500,53.336966552734374,0.021671313792467117,0.0873904675245285,-0.02285080775618553
1718308934465736700,53.38673681640625,0.09223899245262146,0.012223915196955204,-0.03828366845846176
1718308934515506400,53.43650634765625,0.06623940914869308,0.008638935163617134,0.02460898831486702
1718308934565276700,53.48627661132812,0.09270337224006653,-0.0029156010132282972,0.057851459830999374
1718308934615046400,53.53604638671875,0.06446591019630432,-0.18949733674526215,0.04137391224503517
1718308934664816600,53.585816650390626,-0.06467362493276596,0.01829630881547928,0.14691464602947235
1718308934714587100,53.63558715820312,-0.03184903413057327,-0.08635883033275604,0.09894657135009766
1718308934764357000,53.685357177734375,0.011775672435760498,-0.02320142835378647,0.0488828644156456
1718308934814127000,53.735127197265626,-0.00597289577126503,0.0758846253156662,0.005407413933426142
1718308934863897000,53.78489697265625,0.018568390980362892,-0.08940081298351288,-0.13196665048599243
1718308934913667300,53.83466723632812,-0.0012636641040444374,-0.061282940208911896,-0.10725997388362885
1718308934963437000,53.88443701171875,-0.05577391758561134,0.050284430384635925,-0.12445171922445297
1718308935013207300,53.93420727539063,-0.17556467652320862,0.14403066039085388,-0.05521944537758827
1718308935062977000,53.98397705078125,-0.0035221923608332872,-0.18891917169094086,-0.16114509105682373
1718308935112747300,54.03374731445312,0.09584707021713257,-0.09115515649318695,0.0844249501824379
1718308935162517000,54.08351708984375,0.06896346062421799,-0.08282069861888885,0.1059718132019043
1718308935212287200,54.13328735351563,-0.033420536667108536,-0.043592359870672226,0.09119479358196259
1718308935262057000,54.18305688476563,-0.03338072821497917,-0.01509510912001133,-0.021097633987665176
1718308935311827200,54.2328271484375,-0.007327014580368996,0.025867288932204247,-0.039018433541059494
1718308935361597200,54.28259716796875,0.045503195375204086,-0.012795422226190567,-0.05501457676291466
1718308935411367200,54.3323671875,0.016143184155225754,0.07328944653272629,-0.04667500779032707
1718308935461137200,54.38213720703125,-0.0720054879784584,0.18611373007297516,-0.028666315600275993
1718308935510907100,54.4319072265625,-0.025869742035865784,0.0643695741891861,-0.04723856970667839
1718308935560677000,54.48167700195312,0.0392974354326725,-0.07900097221136093,-0.06327754259109497
1718308935610447000,54.531447021484375,0.007656758651137352,0.1913338154554367,0.04334443435072899
1718308935660217000,54.58121704101563,0.08570084720849991,-0.02761620283126831,-0.12619201838970184
1718308935709987000,54.63098706054687,0.012124542146921158,0.08179233968257904,0.028957553207874298
1718308935759757300,54.68075732421875,0.026059025898575783,-0.22650472819805145,0.11300799995660782
1718308935809527000,54.730527099609375,-0.042241666465997696,-0.22320275008678436,0.2265484631061554
1718308935859297300,54.78029736328125,-0.06070059537887573,0.04858237877488136,0.055725835263729095
1718308935909067300,54.8300673828125,-0.01902100071310997,0.11087652295827866,-0.041580576449632645
1718308935958837200,54.879837158203124,-0.010140325874090195,-0.08767516165971756,-0.01089143194258213
1718308936008607200,54.929607177734376,0.010162454098463058,-0.2539147138595581,-0.10845327377319336
1718308936058377200,54.97937719726563,-0.06453472375869751,-0.17786908149719238,-0.11355052888393402
1718308936108147200,55.02914721679687,-0.10433663427829742,-0.030254816636443138,-0.08866754174232483
1718308936157917200,55.078917236328124,-0.06770571321249008,-0.06409899145364761,-0.1793266385793686
1718308936207687200,55.128687255859376,-0.052870143204927444,-0.1254231184720993,-0.13891319930553436
1718308936257457200,55.17845703125,0.06780128926038742,-0.2900390625,-0.028129177168011665
1718308936307226000,55.22822607421875,0.027079153805971146,-0.11148291826248169,-0.008443430997431278
1718308936356996400,55.27799633789063,-0.0383312851190567,0.3461620807647705,0.10119104385375977
1718308936406766000,55.32776611328125,0.05453800410032272,0.11692461371421814,0.07563714683055878
1718308936456536300,55.377536376953124,0.04436716064810753,-0.08514317125082016,0.03648803010582924
1718308936506306000,55.42730615234375,-0.042987726628780365,0.06839360296726227,0.028229957446455956
1718308936556076300,55.477076171875,-0.034841977059841156,0.11598306149244308,-0.06778629869222641
1718308936605846300,55.52684619140625,0.02352778986096382,0.15777531266212463,-0.07887627929449081
1718308936655616300,55.5766162109375,0.020402370020747185,0.1528920829296112,-0.0600077323615551
1718308936705385700,55.6263857421875,0.021567704156041145,0.2071966677904129,0.0371648371219635
1718308936755155500,55.676155517578124,0.05534104257822037,0.08185291290283203,0.1105973869562149
1718308936804925700,55.72592578125,-0.02100352756679058,-0.09690751880407333,0.13459831476211548
1718308936854695700,55.77569580078125,-0.049216363579034805,0.2580491900444031,0.15861383080482483
1718308936904465700,55.82546557617187,-0.004181371070444584,-0.029142221435904503,0.1336786299943924
1718308936954235600,55.875235595703124,-0.00326555036008358,0.24035194516181946,-0.012803787365555763
1718308937004005600,55.925005615234376,-0.04911419376730919,0.10142624378204346,0.12728500366210938
1718308937053775600,55.97477563476563,-0.062094446271657944,-0.0059055606834590435,0.08256139606237411
1718308937103545600,56.02454565429687,-0.07943969964981079,0.07050377130508423,0.01918749511241913
1718308937153315600,56.074315673828124,0.020207857713103294,-0.1557624787092209,-0.07076798379421234
1718308937203085600,56.12408544921875,-0.025069940835237503,0.028147507458925247,-0.06626702100038528
1718308937252855600,56.17385546875,-0.01991935819387436,-0.1554211974143982,0.052242130041122437
1718308937302625500,56.22362548828125,-0.07770153135061264,-0.07612241059541702,-0.026916082948446274
1718308937352395500,56.2733955078125,-0.20746541023254395,0.24112334847450256,0.0018333822954446077
1718308937402165800,56.323165771484376,-0.010737383738160133,-0.0765196904540062,-0.110929936170578
1718308937451934500,56.3729345703125,0.05904296413064003,-0.27402254939079285,-0.01603882573544979
1718308937501704700,56.42270458984375,0.016977541148662567,-0.23067371547222137,0.04376759007573128
1718308937551474700,56.472474609375,-0.051603879779577255,-0.17592675983905792,0.13199160993099213
1718308937601244700,56.52224462890625,0.0007524734828621149,-0.3332427442073822,0.13325431942939758
1718308937651014700,56.5720146484375,-0.045837175101041794,-0.5474864840507507,-0.042540788650512695
1718308937700785000,56.621784912109376,-0.0980897918343544,-0.441458523273468,-0.1252485066652298
1718308937750555100,56.67155517578125,-0.014233866706490517,-0.2246665358543396,-0.1629679799079895
1718308937800324900,56.72132495117187,0.0339830219745636,-0.20512086153030396,-0.181904137134552
1718308937850095000,56.77109521484375,-0.020475255325436592,0.18876415491104126,-0.1289283186197281
1718308937899864800,56.82086474609375,-0.1654832810163498,0.34828677773475647,0.009115118533372879
1718308937949635000,56.87063500976563,-0.17210063338279724,0.04470767080783844,0.13606305420398712
1718308937999404800,56.92040478515625,-0.2969120442867279,0.2528207302093506,0.27089589834213257
1718308938049175000,56.970175048828125,-0.24723641574382782,0.3481857478618622,0.3676548898220062
1718308938098945000,57.01994506835938,-0.14154472947120667,0.3702571392059326,0.4211580157279968
1718308938148714000,57.0697138671875,-0.23112094402313232,0.6330922245979309,0.4789365828037262
1718308938198484000,57.11948388671875,0.008006518706679344,0.4948073625564575,-0.11388194561004639
1718308938248254000,57.16925390625,0.16836640238761902,0.6930438876152039,0.0928567424416542
1718308938298024000,57.21902392578125,0.05141238868236542,-0.2011946439743042,0.20683947205543518
1718308938347794200,57.268794189453125,0.26200294494628906,-0.5310944318771362,-0.14673909544944763
1718308938397564000,57.31856396484375,0.25102826952934265,-0.49401867389678955,-0.3192163109779358
1718308938447334100,57.36833422851562,-0.20365330576896667,0.8313074707984924,-0.4895592927932739
1718308938497104000,57.41810375976563,0.6844151616096497,-0.7038976550102234,-1.2171798944473267
1718308938546874000,57.4678740234375,1.7051876783370972,-0.5040766596794128,-2.3155808448791504
1718308938596643800,57.517643798828125,2.6424663066864014,-1.871867299079895,-3.0786499977111816
1718308938646414000,57.5674140625,0.5390515923500061,2.012369394302368,-2.011197090148926
1718308938696183000,57.61718310546875,-0.3222470283508301,-0.011465732008218765,2.236630916595459
1718308938745952800,57.66695288085938,-1.158215880393982,0.21822649240493774,1.4601826667785645
1718308938795723000,57.71672290039062,-1.229758858680725,-0.4895458519458771,2.5159318447113037
1718308938845492700,57.76649267578125,0.8323333859443665,-1.096575140953064,-0.5793019533157349
1718308938895263000,57.816262939453125,-0.31973758339881897,2.0540542602539062,0.4925706088542938
1718308938945033000,57.86603295898438,0.1159866452217102,0.17996619641780853,0.1703975349664688
1718308938994803000,57.91580297851562,0.05114629492163658,-0.3635302186012268,-0.864450991153717
1718308939044573000,57.96557299804687,-0.5109366774559021,0.10766411572694778,0.31666651368141174
1718308939094343000,58.015343017578125,-0.2719404101371765,-0.3385668396949768,0.3207852244377136
1718308939144111900,58.06511181640625,-0.003283863887190819,-0.3775390684604645,-0.030913839116692543
1718308939193882000,58.114882080078125,-0.26624369621276855,0.1705533117055893,0.27762195467948914
1718308939243651800,58.16465185546875,-0.40732938051223755,0.6946700215339661,0.31376755237579346
1718308939293422000,58.21442211914062,-0.2094631940126419,-0.30414122343063354,0.1605316400527954
1718308939343191800,58.26419189453125,-0.03645969182252884,-0.3594435155391693,0.3037228286266327
1718308939392962000,58.313962158203125,0.09428151696920395,-0.17014077305793762,0.10272493958473206
1718308939442731800,58.363731689453125,0.006556016393005848,0.3796573877334595,0.10591846704483032
1718308939492502000,58.413501953125,-0.02598615176975727,0.11258909851312637,-0.0018620798364281654
1718308939542271700,58.46327172851562,0.007092639803886414,0.013716924004256725,-0.08988626301288605
1718308939592040700,58.51304077148438,0.000560168526135385,0.035755354911088943,-0.021145083010196686
1718308939641811000,58.56281103515625,0.033080898225307465,0.10195965319871902,-0.05925712361931801
1718308939691581000,58.61258081054687,0.03899112343788147,0.03075541742146015,-0.02461821213364601
1718308939741351000,58.662350830078125,0.07660027593374252,-0.2133488804101944,0.006119922734797001
1718308939791121000,58.71212084960938,0.16900575160980225,0.10685272514820099,-0.34589579701423645
1718308939840891000,58.76189086914062,0.028170228004455566,0.6116916537284851,-0.03166503086686134
1718308939890661000,58.8116611328125,0.05535528063774109,-0.37401819229125977,0.11904855072498322
1718308939940430800,58.861430908203126,-0.053685083985328674,-0.1260027140378952,0.14676646888256073
1718308939990200000,58.911199951171874,-0.12234760820865631,0.08472141623497009,0.2843628525733948
1718308940039970000,58.960969970703125,0.008949292823672295,-0.44196754693984985,0.0966455265879631
1718308940089740000,59.01073999023438,-0.0013341601006686687,-0.07149975001811981,0.0470404177904129
1718308940139510000,59.06051000976562,0.4206540584564209,-7.237008571624756,-2.17383074760437
1718308940189280000,59.110280029296874,-0.30530840158462524,1.632856845855713,0.9386290907859802
1718308940239050000,59.160050048828126,0.09234900772571564,-0.5446561574935913,-0.540196418762207
1718308940288819200,59.209819091796874,-0.0053030396811664104,-0.10578254610300064,-0.1400074064731598
1718308940338589000,59.2595888671875,0.0008960624109022319,0.07941410690546036,-0.181301087141037
1718308940388359200,59.30935913085938,-0.1290617138147354,0.31135615706443787,0.06606115400791168
1718308940438129000,59.35912890625,-0.03741074725985527,-0.10681673139333725,0.01868867501616478
1718308940487899100,59.408899169921874,-0.0096253901720047,0.08084337413311005,0.11176273971796036
1718308940537668900,59.4586689453125,0.054469574242830276,0.026362966746091843,0.16886188089847565
1718308940587439000,59.50843920898438,-0.013922098092734814,0.03538653254508972,0.10219050198793411
1718308940637208000,59.5582080078125,-0.029243800789117813,0.21708199381828308,0.04484857991337776
1718308940686977800,59.607977783203125,0.09279482811689377,-0.26120397448539734,-0.025364015251398087
1718308940736748000,59.657748046875,0.05488535761833191,-0.17768560349941254,0.012266123667359352
1718308940786518000,59.70751806640625,-0.07113353163003922,0.0014451008755713701,0.0029372272547334433
1718308940836288000,59.7572880859375,-0.03679072484374046,0.13597209751605988,-0.1140858456492424
1718308940886058000,59.80705810546875,0.054083310067653656,0.2605847418308258,-0.05204102024435997
1718308940935827000,59.856826904296874,0.0986824780702591,0.24981386959552765,-0.0594327487051487
1718308940985597000,59.906596923828126,0.05085922032594681,0.12572629749774933,0.06826510280370712
1718308941035367000,59.95636694335938,0.013323670253157616,0.18228180706501007,-0.05590443313121796
1718308941085137000,60.00613696289062,0.045237161219120026,0.14014509320259094,-0.1109403595328331
1718308941134907000,60.055906982421874,0.11801725625991821,-0.06802333146333694,0.03485757112503052
1718308941184676900,60.1056767578125,0.03558909147977829,-0.0943693295121193,0.12965181469917297
1718308941234446000,60.155446044921874,-0.04309845715761185,0.23192405700683594,0.17839771509170532
1718308941284215800,60.2052158203125,-0.010339522734284401,-0.12994173169136047,0.24423664808273315
1718308941333986000,60.25498608398438,0.007022522389888763,-0.12466598302125931,0.07608140259981155
1718308941383756000,60.30475610351562,-0.04722806438803673,-0.2598729431629181,0.07802435755729675
