time,seconds_elapsed,z,y,x
1718308881105478400,0.026478515625,0.016681242734193802,-0.15611210465431213,0.12431290000677109
1718308881160227300,0.081227294921875,-0.018029067665338516,0.11691915988922119,0.06898333132266998
1718308881209998300,0.130998291015625,-0.01432008296251297,-0.13032524287700653,0.10583189129829407
1718308881259770400,0.180770263671875,0.08646857738494873,-0.026337331160902977,-0.05576419457793236
1718308881309542400,0.23054248046875,0.024690166115760803,0.031922511756420135,-0.07606680691242218
1718308881359313200,0.280313232421875,0.05877330154180527,0.006019010208547115,0.09182286262512207
1718308881409085200,0.330085205078125,0.10692218691110611,-0.026627881452441216,0.1343088001012802
1718308881458856400,0.3798564453125,0.01847567968070507,-0.0017156084068119526,0.021762553602457047
1718308881508628500,0.42962841796875,0.022491993382573128,-0.01865704171359539,0.0667012631893158
1718308881558399500,0.4793994140625,0.06519258767366409,0.01834305375814438,-0.03471643477678299
1718308881608171500,0.529171630859375,0.05191566050052643,-0.029036445543169975,-0.09912338852882385
1718308881657942000,0.57894189453125,-0.02394501306116581,-0.028332572430372238,0.06258668005466461
1718308881707714000,0.628714111328125,-0.037336986511945724,-0.0017382452497258782,-0.1422886997461319
1718308881757485000,0.678485107421875,0.013138172216713428,-0.015381619334220886,-0.04399515315890312
1718308881807257000,0.728257080078125,-0.0024676851462572813,-0.03303118795156479,-0.022012092173099518
1718308881857028000,0.778028076171875,0.09698620438575745,0.09919928759336472,-0.12098048627376556
1718308881906800000,0.827800048828125,0.15390487015247345,0.31531640887260437,-0.12895691394805908
1718308881956571100,0.877571044921875,0.19827952980995178,0.36687493324279785,-0.14087270200252533
1718308882006343200,0.92734326171875,0.5143983364105225,0.3706638216972351,-0.8887261152267456
1718308882056114200,0.9771142578125,1.0903040170669556,0.47424694895744324,-0.49356284737586975
1718308882105886200,1.02688623046875,0.24454796314239502,1.9550209045410156,1.465574860572815
1718308882155657000,1.076656982421875,-2.3295538425445557,-1.5040225982666016,2.4760584831237793
1718308882205429000,1.126428955078125,-0.2850029766559601,1.9829596281051636,-0.29062145948410034
1718308882255200300,1.1762001953125,0.6925014853477478,-1.0856565237045288,0.09558723866939545
1718308882304972300,1.22597216796875,0.35111621022224426,-2.8002471923828125,0.779832661151886
1718308882354743000,1.275742919921875,-0.5232291221618652,-1.0063941478729248,-0.11703767627477646
1718308882404515000,1.32551513671875,-0.9730705618858337,-1.7915984392166138,0.06822752207517624
1718308882454286000,1.3752861328125,-1.2236831188201904,-1.5910595655441284,-0.6182291507720947
1718308882504057000,1.42505712890625,-0.6015651822090149,-1.1664648056030273,-0.22900068759918213
1718308882553829000,1.4748291015625,-0.3980584144592285,-0.9075744152069092,-0.5097074508666992
1718308882603600100,1.52460009765625,-0.38691389560699463,-0.6388310790061951,-0.23174214363098145
1718308882653372200,1.5743720703125,-0.3566198945045471,-0.3435203433036804,-0.1966395527124405
1718308882703143200,1.62414306640625,-0.3935222625732422,0.046058040112257004,-0.26045021414756775
1718308882752915200,1.673915283203125,-0.3474096357822418,-0.15434803068637848,-0.35454848408699036
1718308882802686200,1.723686279296875,-0.3792751431465149,0.2791895568370819,-0.4842950403690338
1718308882852458000,1.7734580078125,-0.24664972722530365,0.13761219382286072,-0.5337307453155518
1718308882902229000,1.82322900390625,-0.1391480416059494,-0.3014504015445709,0.038233671337366104
1718308882952001000,1.8730009765625,0.013102485798299313,-0.18683433532714844,-0.10985326021909714
1718308883001772300,1.922772216796875,-0.1461460292339325,-0.25625574588775635,0.1508723348379135
1718308883051544000,1.9725439453125,-0.08976397663354874,0.24172420799732208,-0.15018923580646515
1718308883101315000,2.022315185546875,-0.19726699590682983,0.07186619937419891,-0.01900671422481537
1718308883151087000,2.072087158203125,-0.15715207159519196,-0.05927877128124237,-0.26001691818237305
1718308883200858000,2.121858154296875,-0.059962935745716095,0.013789582066237926,-0.0781073197722435
1718308883250629000,2.171629150390625,0.08446268737316132,-0.07752116024494171,0.0022687469609081745
1718308883300401200,2.221401123046875,0.2823121249675751,-0.14722301065921783,0.3833596408367157
1718308883350172200,2.271172119140625,0.17752578854560852,-0.07403907179832458,0.17925257980823517
1718308883399944200,2.320944091796875,0.23040923476219177,0.8156620264053345,-0.6230478882789612
1718308883449715200,2.370715087890625,0.00033182985498569906,0.09635663032531738,-0.572925329208374
1718308883499487200,2.4204873046875,-0.053233660757541656,0.16738659143447876,-0.9565123915672302
1718308883579121200,2.50012109375,-0.26934465765953064,-0.04724447801709175,-1.3638956546783447
1718308883628892200,2.54989208984375,-0.24905109405517578,0.4358731806278229,-1.6182514429092407
1718308883678664000,2.599663818359375,-0.5021861791610718,-0.40655070543289185,-0.9881216883659363
1718308883728434700,2.6494345703125,-0.33194971084594727,-0.8278087377548218,-0.4961671531200409
1718308883778206700,2.699206787109375,-0.41304296255111694,-0.10847055166959763,-0.8129310011863708
1718308883827978000,2.74897802734375,-0.3179324269294739,-0.4587915539741516,-0.3455158472061157
1718308883877750000,2.79875,-0.18610168993473053,-0.3985990583896637,-0.4967104196548462
1718308883927520800,2.848520751953125,0.28487592935562134,-1.2217129468917847,0.1790003776550293
1718308883977292800,2.898292724609375,0.379716694355011,-2.1318821907043457,0.7517688274383545
1718308884027063800,2.948063720703125,0.8454902768135071,-3.3848485946655273,0.6988848447799683
1718308884076834800,2.997834716796875,1.9350930452346802,-4.122788906097412,1.2806878089904785
1718308884126606800,3.04760693359375,3.0787651538848877,-6.4694929122924805,1.2873129844665527
1718308884176377900,3.0973779296875,2.861893892288208,-5.729454517364502,2.155190944671631
1718308884226150000,3.14714990234375,2.924323081970215,-4.7816972732543945,2.666489839553833
1718308884275921000,3.1969208984375,2.100219488143921,-3.706559419631958,4.24565315246582
1718308884325693000,3.24669287109375,0.7222556471824646,-0.844603419303894,3.351083993911743
1718308884375464000,3.2964638671875,-2.524315118789673,-0.1929319053888321,1.7151638269424438
1718308884425234700,3.346234619140625,-1.1963862180709839,1.735156774520874,-2.6167562007904053
1718308884475006700,3.3960068359375,-1.1669657230377197,0.7091765999794006,-0.4394463300704956
1718308884524778000,3.445778076171875,1.9944431781768799,-2.9655938148498535,2.0188963413238525
1718308884574550000,3.495550048828125,1.8781168460845947,1.442870020866394,0.3849426209926605
1718308884624320800,3.54532080078125,-0.30602598190307617,2.2343521118164062,-0.62882399559021
1718308884674093000,3.595093017578125,-1.354191780090332,2.2116541862487793,-1.2222164869308472
1718308884723864000,3.644864013671875,0.9695315361022949,-0.6556068658828735,-1.5846633911132812
1718308884773636000,3.694635986328125,4.840498924255371,-5.294435501098633,-1.9044100046157837
1718308884823406800,3.74440673828125,3.422692060470581,-0.4897947311401367,2.8278539180755615
1718308884873178000,3.79417822265625,0.12579521536827087,0.7525289058685303,-0.4510265588760376
1718308884922950100,3.8439501953125,1.5140233039855957,1.5098373889923096,-1.4149646759033203
1718308884972721200,3.89372119140625,2.2680931091308594,0.9333537817001343,-0.04717443510890007
1718308885022493200,3.9434931640625,1.9094716310501099,-1.5959378480911255,0.3090483844280243
1718308885072264000,3.993263916015625,3.0331950187683105,-2.5340476036071777,1.5278395414352417
1718308885122035000,4.043034912109375,3.6385834217071533,-0.8976296186447144,0.32807934284210205
1718308885171807000,4.092806884765625,1.302248477935791,0.23654623329639435,0.3335617184638977
1718308885221578200,4.142578125,-0.22587893903255463,0.7859209179878235,-0.4556889533996582
1718308885271350000,4.19235009765625,-0.27389493584632874,0.351773738861084,-0.8700835108757019
1718308885321121000,4.24212109375,0.8925334215164185,0.22151347994804382,0.4704681634902954
1718308885370892000,4.29189208984375,0.19358651340007782,0.2933538556098938,-0.6048323512077332
1718308885420664000,4.3416640625,0.05041284114122391,0.34528735280036926,-0.25437742471694946
1718308885470434800,4.391434814453125,2.4533398151397705,-0.8399703502655029,0.26766127347946167
1718308885520206000,4.4412060546875,3.1412012577056885,-0.5712389945983887,0.6831160187721252
1718308885569978000,4.49097802734375,0.625015139579773,-0.45942404866218567,0.20337282121181488
1718308885619749000,4.5407490234375,-0.612909734249115,0.8964676856994629,-0.10078120231628418
1718308885669520600,4.590520751953125,-1.0374897718429565,1.07474684715271,-0.4534846544265747
1718308885719291600,4.640291748046875,-0.289084792137146,-0.17691831290721893,0.43196579813957214
1718308885769062700,4.690062744140625,0.052150286734104156,0.9778631925582886,0.29296210408210754
1718308885818834700,4.739834716796875,-0.024202806875109673,0.45996546745300293,-0.001844771672040224
1718308885868605700,4.789605712890625,-0.2503560483455658,0.1643386036157608,-0.117940753698349
1718308885918376700,4.839376708984375,0.1344827115535736,-0.426563024520874,-0.6765925884246826
1718308885968148700,4.889148681640625,0.9318749308586121,-0.9540289640426636,-0.8366344571113586
1718308886017919700,4.938919677734375,1.546271562576294,0.6979047656059265,-0.8471563458442688
1718308886067691800,4.98869189453125,0.1861320585012436,0.7776374220848083,0.35586437582969666
1718308886117462500,5.038462646484375,-0.2639576196670532,-0.19307464361190796,0.7084535956382751
1718308886167233800,5.08823388671875,-0.5586712956428528,0.33686670660972595,1.111859917640686
1718308886217005800,5.138005859375,-1.0514814853668213,0.11636229604482651,1.2097753286361694
1718308886266776800,5.18777685546875,-0.05524008721113205,0.19662757217884064,-0.028477713465690613
1718308886316547600,5.237547607421875,1.3007006645202637,-0.4120219051837921,0.6234263181686401
1718308886366319600,5.287319580078125,0.3680238127708435,1.1398316621780396,0.26349130272865295
1718308886416090600,5.337090576171875,-0.2459956556558609,-1.5639901161193848,-0.018340924754738808
1718308886465862000,5.38686181640625,-0.8615278005599976,1.4839439392089844,0.12127210199832916
1718308886515634000,5.436634033203125,-0.14117416739463806,-0.3599696159362793,0.07079481333494186
1718308886565404700,5.48640478515625,0.40963199734687805,0.24416287243366241,0.5862736105918884
1718308886615176700,5.5361767578125,0.4311692416667938,1.0300103425979614,0.8136396408081055
1718308886664947700,5.58594775390625,0.09397363662719727,0.8161097168922424,0.18316689133644104
1718308886714718700,5.63571875,0.03424745425581932,-0.40405747294425964,0.10931024700403214
1718308886764490800,5.68549072265625,-0.5338796377182007,-0.12305588275194168,-0.34151124954223633
1718308886814261800,5.73526171875,-1.173823356628418,-0.33597588539123535,-0.7254610657691956
1718308886864032800,5.78503271484375,0.46834883093833923,-0.30938661098480225,-0.3556470572948456
1718308886913804800,5.8348046875,-0.156682550907135,-0.8925893306732178,0.5316324830055237
1718308886963575800,5.884575927734375,-0.2787437438964844,-0.5894976258277893,0.39407992362976074
1718308887013346600,5.9343466796875,-0.04525349661707878,0.04207927733659744,0.3306463658809662
1718308887063118600,5.98411865234375,0.01823865808546543,0.00044368262751959264,0.4952542185783386
1718308887112889900,6.033889892578125,0.08260619640350342,0.2847941815853119,0.2656758725643158
1718308887162662000,6.083661865234375,0.09770312160253525,0.11387783288955688,0.026581276208162308
1718308887212432600,6.1334326171875,0.12021882086992264,-0.2357613891363144,-0.4689677357673645
1718308887262203600,6.18320361328125,0.46338948607444763,-0.4147101044654846,-0.9370140433311462
1718308887311975700,6.2329755859375,0.5534589290618896,-0.05751948431134224,-1.4562034606933594
1718308887361746700,6.28274658203125,0.5562190413475037,-1.0706791877746582,-2.4403202533721924
1718308887411517700,6.332517578125,0.6618791222572327,-2.004450798034668,-2.7217214107513428
1718308887461289700,6.382289794921875,0.04608919844031334,-0.7462922930717468,-1.4367088079452515
1718308887511060700,6.432060791015625,-0.4163311719894409,-2.0462751388549805,-2.1160225868225098
1718308887560831700,6.481831787109375,0.3992413878440857,-1.7659271955490112,-2.207076072692871
1718308887610603800,6.531603759765625,0.04422019049525261,-0.846027672290802,-1.0585404634475708
1718308887660374800,6.581374755859375,-0.3637846112251282,-0.16758926212787628,-0.3840291500091553
1718308887710145800,6.631145751953125,-0.5388144850730896,-0.07897976785898209,0.54004967212677
1718308887759917800,6.680917724609375,-0.684337317943573,0.1276138871908188,1.0974702835083008
1718308887809688800,6.730688720703125,-0.8181774020195007,0.64339679479599,1.7410247325897217
1718308887859459800,6.7804599609375,-0.9493644833564758,0.4245230555534363,1.3332232236862183
1718308887909231600,6.830231689453125,-0.2482745200395584,0.7534216046333313,1.479048252105713
1718308887959002600,6.880002685546875,0.38619405031204224,-0.004306597635149956,-0.17839877307415009
1718308888008774700,6.929774658203125,-0.3277110159397125,-0.616197943687439,-0.12366947531700134
1718308888058546000,6.9795458984375,-0.411169171333313,0.8455832004547119,1.3659329414367676
1718308888108316700,7.029316650390625,-0.31887784600257874,0.7609740495681763,0.2794191241264343
1718308888158088700,7.079088623046875,-0.5665957927703857,-0.5625070333480835,0.6570154428482056
1718308888207859700,7.128859619140625,-0.2919306457042694,0.2205246537923813,0.31646209955215454
1718308888257630700,7.178630615234375,-0.17375154793262482,-0.14581233263015747,0.7529270052909851
1718308888307402800,7.22840283203125,-0.3933526277542114,-0.02478817105293274,0.17057040333747864
1718308888357173800,7.278173828125,-0.3903789222240448,0.9748120307922363,0.08206317573785782
1718308888406944800,7.32794482421875,-0.30201658606529236,0.501808762550354,0.9012858867645264
1718308888456716800,7.377716796875,-0.0809694156050682,0.8097423911094666,0.34608709812164307
1718308888506487800,7.42748779296875,-0.3446974754333496,0.07726868987083435,0.0827750414609909
1718308888556258600,7.477258544921875,-0.1330222338438034,0.2835105359554291,0.09116506576538086
1718308888606030600,7.527030517578125,-0.07735683768987656,0.15295332670211792,0.08616391569375992
1718308888655802400,7.57680224609375,-0.13814163208007812,0.3867945969104767,0.01082734763622284
1718308888705573400,7.626573486328125,-0.13041765987873077,0.23467828333377838,0.09652094542980194
1718308888755345400,7.676345458984375,0.017594173550605774,0.19886009395122528,-0.034207772463560104
1718308888805116400,7.726116455078125,0.005114068277180195,0.07979336380958557,0.02472212351858616
1718308888854887400,7.775887451171875,0.09023828059434891,-0.08175691217184067,0.012328571639955044
1718308888904659500,7.825659423828125,0.11829708516597748,0.054481882601976395,-0.06581443548202515
1718308888954430500,7.875430419921875,0.1297803670167923,-0.00006231796578504145,-0.09103084355592728
1718308889004201500,7.925201416015625,-0.015111574903130531,0.10067654401063919,-0.0035838158801198006
1718308889053973500,7.974973388671875,-0.031801871955394745,-0.33566802740097046,-0.0965433195233345
1718308889103744500,8.02474462890625,0.07117936760187149,-0.5322210192680359,-0.19715727865695953
1718308889153515300,8.074515380859374,0.22647760808467865,-0.7552570104598999,-0.1915726214647293
1718308889203287300,8.124287353515625,0.14597079157829285,-0.8071777820587158,-0.13567261397838593
1718308889253058600,8.17405859375,0.1916850060224533,-0.7648311257362366,-0.2070503830909729
1718308889302829600,8.22382958984375,0.2860599756240845,-1.0745927095413208,-0.1982683539390564
1718308889352601300,8.273601318359376,0.33972346782684326,-0.9296935796737671,-0.29219138622283936
1718308889402372400,8.323372314453126,0.2818841338157654,-0.9822462201118469,-0.28060102462768555
1718308889452143400,8.373143310546874,0.23628683388233185,-1.1269099712371826,-0.19666698575019836
1718308889501914600,8.42291455078125,0.36288630962371826,-1.7405906915664673,-0.4501709043979645
1718308889551686400,8.472686279296875,0.31512919068336487,-1.8528008460998535,-0.48344284296035767
1718308889601457400,8.52245751953125,0.5460670590400696,-1.9501314163208008,-0.572100818157196
1718308889651228400,8.572228515625,0.4974190890789032,-1.3013792037963867,-0.3873298764228821
1718308889701000000,8.622,0.5615187287330627,-0.6876484155654907,-0.31123271584510803
1718308889750771000,8.67177099609375,0.6566740274429321,-0.3829369843006134,-0.3463033437728882
1718308889800542000,8.7215419921875,0.5889146327972412,-0.17009982466697693,-0.31676942110061646
1718308889850314000,8.77131396484375,0.5849792957305908,0.002868490759283304,-0.4616384506225586
1718308889900085000,8.8210849609375,0.3567272424697876,-0.10363105684518814,-0.5352628827095032
1718308889949856000,8.87085595703125,0.5718017220497131,-0.08009669929742813,-0.7659440040588379
1718308889999626800,8.920626708984376,0.4874098598957062,-1.4701248407363892,-0.03910186141729355
1718308890049398800,8.970398681640624,0.10692085325717926,-1.3349629640579224,0.3464692533016205
1718308890099170000,9.020170166015625,0.25453269481658936,-1.3798454999923706,-0.9657498002052307
1718308890148941000,9.069941162109375,0.11015952378511429,-1.4115227460861206,-0.8145882487297058
1718308890198713000,9.119713134765625,-0.502551794052124,-2.778470277786255,-0.6627111434936523
1718308890248483800,9.16948388671875,-1.1862156391143799,-2.1124391555786133,-1.9059759378433228
1718308890298254800,9.2192548828125,-1.9604867696762085,-2.812401056289673,-2.408419370651245
1718308890348026000,9.269026123046874,-2.2304904460906982,-2.594672918319702,-1.5263454914093018
1718308890397798100,9.318798095703125,-1.6682536602020264,-2.9416401386260986,-1.693110466003418
1718308890447569000,9.36856884765625,-0.8923448324203491,-3.130808115005493,-1.7304126024246216
1718308890497340000,9.41833984375,-0.4469956159591675,-2.5663058757781982,-1.2677658796310425
1718308890547111000,9.46811083984375,0.2355688512325287,-1.8699907064437866,-0.7096831798553467
1718308890596883000,9.517883056640626,0.04764821380376816,-0.6847155094146729,-0.43934887647628784
1718308890646654000,9.567654052734374,-0.3478791415691376,-0.11486613005399704,0.01685168407857418
1718308890696425000,9.617425048828125,-0.5937837362289429,0.35176709294319153,0.6018299460411072
1718308890746195700,9.66719580078125,-0.5062655806541443,-0.5258006453514099,0.5072341561317444
1718308890795967700,9.7169677734375,-0.15690572559833527,-0.9228300452232361,0.05392874404788017
1718308890845739000,9.766739013671875,-0.6605725884437561,-0.5765078067779541,0.5951507091522217
1718308890895510000,9.816510009765626,0.09378454834222794,2.2847917079925537,0.9992529153823853
1718308890945280800,9.86628076171875,0.17316752672195435,-0.8255213499069214,0.4392087757587433
1718308890995052800,9.916052734375,-0.6757470369338989,2.8410427570343018,2.0499379634857178
1718308891044823800,9.96582373046875,-0.16399027407169342,-0.1823764592409134,0.457271933555603
1718308891094595000,10.015594970703125,-0.4964475929737091,0.4476344883441925,0.7166385054588318
1718308891144365800,10.06536572265625,-0.043408725410699844,0.7625777721405029,0.6573733687400818
1718308891194137900,10.115137939453126,-0.01218955498188734,0.4156757593154907,0.6309859752655029
1718308891243908900,10.164908935546874,-0.1555272787809372,-0.055634766817092896,0.5977854132652283
1718308891293679900,10.214679931640624,-0.29233360290527344,0.33845287561416626,0.8051308393478394
1718308891343451000,10.264450927734375,-0.021630993112921715,0.4196569323539734,0.7110238075256348
1718308891393222000,10.314221923828125,0.06262876093387604,0.47156858444213867,0.7707891464233398
1718308891442994000,10.363993896484375,0.14106790721416473,0.2204791158437729,0.7023983597755432
1718308891492765000,10.413764892578126,0.034506313502788544,0.41477587819099426,0.7253124713897705
1718308891542535700,10.46353564453125,0.2081553339958191,-0.3033825159072876,0.42180290818214417
1718308891592307000,10.513306884765624,0.16474899649620056,-0.4797727167606354,0.09102817624807358
1718308891642078000,10.563077880859375,0.40002676844596863,-0.50971919298172,-0.8322655558586121
1718308891691850000,10.61285009765625,0.5930617451667786,-0.7584285736083984,-1.9283629655838013
1718308891741621000,10.66262109375,1.083549976348877,-1.013171911239624,-3.5865302085876465
1718308891791392000,10.71239208984375,0.1318291425704956,0.8681524395942688,-1.2014079093933105
1718308891841163000,10.7621630859375,-0.3920500576496124,-1.9816880226135254,-1.6249042749404907
1718308891890935000,10.81193505859375,-0.0331406444311142,-1.7592689990997314,-2.096855878829956
1718308891940706000,10.8617060546875,0.550226628780365,-1.5076346397399902,-2.0677402019500732
1718308891990477000,10.91147705078125,0.0114001939073205,0.08055689185857773,-0.37514910101890564
1718308892040247800,10.961247802734375,-0.2956814467906952,0.6709626317024231,-0.03846776485443115
1718308892090019000,11.01101904296875,-0.4231659173965454,0.9861810803413391,0.46743908524513245
1718308892139790000,11.0607900390625,-0.9748839139938354,-0.22597508132457733,0.9889145493507385
1718308892189562000,11.11056201171875,-0.7412149906158447,0.0942724421620369,0.49777302145957947
1718308892239332900,11.160332763671875,-0.10348697751760483,-2.0598697662353516,-0.4646715521812439
1718308892289104000,11.210103759765625,-0.6149417161941528,1.1790820360183716,2.135493040084839
1718308892338875100,11.259875244140625,0.5630111694335938,1.1967787742614746,-0.14100372791290283
1718308892388646000,11.30964599609375,0.010160491801798344,0.9815698266029358,0.6986842751502991
1718308892438417000,11.3594169921875,-0.505757749080658,0.9593284130096436,1.2953131198883057
1718308892488189000,11.40918896484375,-0.28618302941322327,-0.1147172600030899,1.053076148033142
1718308892537960000,11.4589599609375,-0.32860371470451355,-0.3420436382293701,0.5187214612960815
1718308892587731000,11.50873095703125,-0.0598665289580822,0.6795969009399414,0.6438676714897156
1718308892637502000,11.558501953125,0.029276661574840546,0.5173424482345581,0.7315778136253357
1718308892687272400,11.6082724609375,-0.16379079222679138,-0.08330687135457993,0.714453399181366
1718308892737043500,11.65804345703125,-0.178687185049057,0.5209891200065613,0.8685348629951477
1718308892786815500,11.7078154296875,0.212047278881073,0.29267793893814087,0.7100583910942078
1718308892836586500,11.75758642578125,0.179880291223526,0.7533707022666931,0.7477852702140808
1718308892886357500,11.807357421875,0.014465225860476494,0.6458250880241394,0.6297318935394287
1718308892936128300,11.857128173828125,0.25763899087905884,0.2102579027414322,0.45659443736076355
1718308892985899500,11.9068994140625,0.0652647539973259,-0.14901265501976013,0.09715291112661362
1718308893035670500,11.95667041015625,0.2972671091556549,-0.3077934980392456,-0.8240392804145813
1718308893085442600,12.006442626953126,0.605129599571228,-0.7245651483535767,-2.052431344985962
1718308893135213300,12.05621337890625,0.8188953995704651,-0.8845236897468567,-3.2471587657928467
1718308893184984300,12.105984375,-0.3551546335220337,0.16615834832191467,-1.5464520454406738
1718308893234755600,12.155755615234375,0.03385649994015694,-2.427161931991577,-2.0098652839660645
1718308893284526600,12.205526611328125,0.6524614095687866,-1.2147655487060547,-2.13249135017395
1718308893334297300,12.25529736328125,0.23947037756443024,-0.7219762802124023,-1.4652315378189087
1718308893384068600,12.305068603515625,-0.13376684486865997,0.09810339659452438,-0.23277758061885834
1718308893433839600,12.354839599609376,-0.2150939255952835,0.7241465449333191,0.044682517647743225
1718308893483611600,12.404611572265624,-0.3615097403526306,0.8289405703544617,0.360065758228302
1718308893533382400,12.45438232421875,-0.7621034979820251,-0.08993788063526154,1.2448424100875854
1718308893583153400,12.5041533203125,-0.7387142777442932,-0.03292625769972801,0.7301202416419983
1718308893632924700,12.553924560546875,-0.11139310151338577,-2.166146993637085,-0.7011849880218506
1718308893682696400,12.603696533203125,-0.15357065200805664,2.965543746948242,2.4886934757232666
1718308893732467200,12.65346728515625,0.4635399580001831,-1.9345643520355225,-0.49411463737487793
1718308893782238200,12.70323828125,-0.6593150496482849,3.7817695140838623,2.1545610427856445
1718308893832009200,12.75300927734375,-0.24164138734340668,-0.19317744672298431,0.2554038166999817
1718308893881781200,12.80278125,-0.84348464012146,0.8049905300140381,1.530954122543335
1718308893931552300,12.85255224609375,0.04448490962386131,0.020193418487906456,0.2744576632976532
1718308893981323300,12.9023232421875,-0.1847914159297943,1.2081384658813477,0.6365224123001099
1718308894031094300,12.95209423828125,0.033067937940359116,0.3451424837112427,0.532203733921051
1718308894080865000,13.001864990234376,-0.07635842263698578,0.8316292762756348,0.7270674705505371
1718308894130636300,13.05163623046875,0.05733253061771393,0.7164862155914307,0.7628235816955566
1718308894180407300,13.1014072265625,0.04897739738225937,0.8933278322219849,0.4826236367225647
1718308894230178000,13.151177978515625,0.14543895423412323,0.9100396633148193,0.3941129446029663
1718308894279949300,13.20094921875,0.10783964395523071,0.31902140378952026,0.16427043080329895
1718308894329720300,13.25072021484375,0.12065345048904419,-0.0035156388767063618,-0.7105763554573059
1718308894379492400,13.300492431640626,0.3057953417301178,-0.0017092167399823666,-1.9064257144927979
1718308894429263000,13.35026318359375,1.1958900690078735,-0.2018284648656845,-3.4224283695220947
1718308894479034000,13.4000341796875,0.7313991189002991,1.0435296297073364,-2.11104154586792
1718308894528805400,13.449805419921875,-0.33578118681907654,-0.6471129655838013,-1.0445172786712646
1718308894578576400,13.499576416015625,0.001823466387577355,-1.2939183712005615,-1.6612924337387085
1718308894628347100,13.54934716796875,0.6465257406234741,-0.7782957553863525,-1.2873156070709229
1718308894678117600,13.59911767578125,0.059663597494363785,-0.5264291763305664,0.023681094869971275
1718308894727888600,13.648888671875,0.22088950872421265,1.2858535051345825,0.5386802554130554
1718308894777659400,13.698659423828126,0.0225007813423872,1.8380610942840576,0.5238502025604248
1718308894827430400,13.748430419921876,-0.44397372007369995,1.4495809078216553,1.286269187927246
1718308894877201700,13.79820166015625,-0.37432006001472473,0.27550986409187317,0.9850902557373047
1718308894926972400,13.847972412109375,0.1436905860900879,0.26996996998786926,-0.12503807246685028
1718308894976743400,13.897743408203125,-0.7352199554443359,-1.047460675239563,0.5400016903877258
1718308895026514400,13.947514404296875,-0.0017757958266884089,4.107685565948486,1.6208059787750244
1718308895076285400,13.997285400390625,0.27418363094329834,-1.0108102560043335,0.020018449053168297
1718308895126056400,14.047056396484376,-0.4989192485809326,4.050802230834961,1.98847234249115
1718308895175827500,14.096827392578126,-0.455733984708786,1.3228543996810913,0.4961298704147339
1718308895225599500,14.146599609375,-0.6541597247123718,0.9796763062477112,0.747027575969696
1718308895275370500,14.19637060546875,0.02864868938922882,1.8168326616287231,0.6076662540435791
1718308895325141500,14.2461416015625,0.14693644642829895,1.5068780183792114,0.39169082045555115
1718308895374912500,14.29591259765625,-0.007983890362083912,0.6274162530899048,0.46788862347602844
1718308895424683500,14.34568359375,-0.02780926041305065,0.8132529854774475,0.5387771725654602
1718308895474454500,14.39545458984375,0.20041592419147491,0.8945091962814331,0.5078113079071045
1718308895524225500,14.4452255859375,0.19949740171432495,0.7865456938743591,0.5703436136245728
1718308895573996500,14.49499658203125,0.14431457221508026,1.2068969011306763,0.7364274263381958
1718308895623767300,14.544767333984375,0.08108073472976685,1.422177791595459,0.522571861743927
1718308895673538800,14.594538818359375,0.25811463594436646,0.5440715551376343,0.07493043690919876
1718308895723310000,14.64431005859375,-0.11312709003686905,-0.01763571798801422,-0.5244861245155334
1718308895773081000,14.6940810546875,0.33636149764060974,-0.49323180317878723,-1.8948673009872437
1718308895822852000,14.74385205078125,1.3997502326965332,-0.5908387899398804,-3.5419118404388428
1718308895872622800,14.793622802734374,1.2466648817062378,0.8471038937568665,-2.7458300590515137
1718308895922394000,14.84339404296875,-0.07018867880105972,0.13105975091457367,-0.7416477203369141
1718308895972165000,14.8931650390625,0.862387478351593,-1.5011075735092163,-2.132234573364258
1718308896021935900,14.942935791015625,1.0086458921432495,-1.3898259401321411,-2.4886913299560547
1718308896071707100,14.99270703125,0.6192392706871033,-0.4829738438129425,-0.25382134318351746
1718308896121478100,15.04247802734375,-0.2998269200325012,-1.0323344469070435,-0.5720168948173523
1718308896171249000,15.092248779296876,-0.6446176171302795,-1.040296196937561,0.09771271049976349
1718308896221020000,15.14202001953125,-0.7055427432060242,-1.2985591888427734,0.5458489656448364
1718308896270791200,15.191791259765624,-0.8907940983772278,-2.1311285495758057,1.0033522844314575
1718308896320562200,15.241562255859375,-1.1373697519302368,-1.3318265676498413,1.7021647691726685
1718308896370333000,15.2913330078125,0.1195618137717247,-1.2791692018508911,0.2450678050518036
1718308896420104000,15.34110400390625,0.4186164438724518,0.8165675401687622,-0.04259379953145981
1718308896469875200,15.390875244140625,-0.14100532233715057,-0.9725475311279297,0.8775491118431091
1718308896519645000,15.44064501953125,-0.5428467392921448,-1.1356946229934692,-0.1426072120666504
1718308896569416000,15.490416015625,-0.6254678964614868,0.7660966515541077,0.6486861109733582
1718308896619187200,15.540187255859376,-0.5200170874595642,-2.6279170513153076,-0.19008098542690277
1718308896668958500,15.58995849609375,-0.5771083235740662,1.8626015186309814,1.0317800045013428
1718308896718729500,15.6397294921875,-0.25964170694351196,0.03127562999725342,0.3098827600479126
1718308896768500200,15.689500244140625,0.00033582461765035987,-1.3444745540618896,-0.17067746818065643
1718308896818271500,15.739271484375,-0.20122551918029785,0.6736037135124207,0.22453802824020386
1718308896868042500,15.78904248046875,-0.012354670092463493,0.7824468612670898,0.5581189393997192
1718308896917813200,15.838813232421876,0.11552819609642029,-0.27589017152786255,0.0504932664334774
1718308896967584300,15.888584228515626,-0.1483050435781479,-0.07496532052755356,0.1543714702129364
1718308897017355500,15.93835546875,-0.2603575587272644,0.2639504075050354,0.27841272950172424
1718308897067126500,15.98812646484375,0.08646564930677414,0.057986870408058167,-0.28248655796051025
1718308897116897300,16.037897216796875,-0.04796699434518814,0.29885488748550415,-0.03840012103319168
1718308897166668300,16.087668212890627,0.02900182455778122,-0.34464845061302185,-0.1514020413160324
1718308897216439600,16.137439453125,-0.048284973949193954,-0.5332282185554504,-0.2506159842014313
1718308897266210300,16.187210205078124,-0.10047440975904465,-0.22201362252235413,-0.22982627153396606
1718308897315980500,16.23698046875,0.024936774745583534,-0.057134658098220825,-0.16318252682685852
1718308897365751600,16.28675146484375,0.05758446827530861,-0.0027654264122247696,-0.11589118093252182
1718308897415522300,16.336522216796876,0.013348562642931938,-0.02647341974079609,-0.05046769976615906
1718308897465293300,16.386293212890624,-0.026632409542798996,0.04658667743206024,0.0645425096154213
1718308897515064600,16.436064697265625,-0.04091627523303032,-0.07806577533483505,0.036430977284908295
1718308897564835300,16.48583544921875,-0.07379353046417236,-0.13662070035934448,0.04435361549258232
1718308897614606300,16.5356064453125,-0.10424837470054626,0.11058643460273743,0.1328086405992508
1718308897664376300,16.585376220703125,-0.023693878203630447,0.03467116132378578,0.009973271749913692
1718308897714147300,16.635147216796874,0.055932506918907166,0.07766816020011902,0.09573691338300705
1718308897763918300,16.68491845703125,0.030194919556379318,-0.029396237805485725,0.17335927486419678
1718308897813688300,16.734688232421874,0.003925765864551067,-0.04224812239408493,0.18737974762916565
1718308897863459300,16.784459228515626,-0.013638047501444817,0.034325215965509415,0.12114213407039642
1718308897913230300,16.834230224609374,-0.012404205277562141,-0.013567473739385605,0.010387926362454891
1718308897963001300,16.88400146484375,-0.018627213314175606,-0.02020939812064171,-0.09419254213571548
1718308898012772400,16.9337724609375,-0.00868989434093237,-0.05950620397925377,-0.09110674262046814
1718308898062543400,16.98354345703125,-0.02737729623913765,-0.14644190669059753,-0.11530608683824539
1718308898112314400,17.033314453125,-0.03250760957598686,-0.01900991052389145,-0.16308559477329254
1718308898162084400,17.08308447265625,0.009571400471031666,-0.02690778113901615,-0.21249894797801971
1718308898211855400,17.13285546875,-0.0073378076776862144,0.0701170340180397,-0.11939110606908798
1718308898261626400,17.18262646484375,-0.009664079174399376,0.02263207547366619,-0.108853779733181
1718308898311397400,17.2323974609375,0.016526246443390846,0.17919692397117615,-0.08114252239465714
1718308898361168400,17.28216845703125,0.05266241356730461,0.11469089239835739,-0.017720406875014305
1718308898410939400,17.331939453125,0.0003563309437595308,0.12339357286691666,0.014422881416976452
1718308898460709400,17.38170947265625,-0.02947586588561535,0.0736214891076088,0.02924683503806591
1718308898510480400,17.43148046875,-0.02876213937997818,-0.028899557888507843,0.06534891575574875
1718308898560251100,17.481251220703125,-0.03279070183634758,-0.09741950035095215,-0.028415663167834282
1718308898610022400,17.5310224609375,-0.008765794336795807,-0.042808182537555695,0.009253419004380703
1718308898659793400,17.58079345703125,0.026755182072520256,-0.015902800485491753,0.10301107168197632
1718308898709564400,17.630564453125,0.0394241064786911,0.016380570828914642,0.2767282724380493
1718308898759334700,17.680334716796875,0.08231830596923828,0.046544600278139114,0.2067055106163025
1718308898809105700,17.730105712890627,0.037876542657613754,0.05097609758377075,0.06568420678377151
1718308898858876400,17.77987646484375,-0.031123563647270203,0.13411785662174225,-0.00933118350803852
1718308898908647400,17.8296474609375,-0.0054155378602445126,0.03358512371778488,-0.06649486720561981
1718308898958418700,17.879418701171875,0.011898471042513847,-0.128683403134346,-0.09014347195625305
1718308899008188400,17.9291884765625,-0.031202128157019615,-0.14224955439567566,-0.18163824081420898
1718308899057959700,17.978959716796876,-0.00899509247392416,-0.08242803066968918,-0.20729246735572815
1718308899107730700,18.028730712890624,-0.006347111891955137,-0.05175986513495445,-0.1452421396970749
1718308899157501400,18.07850146484375,-0.005057609174400568,-0.028777319937944412,-0.1497519463300705
1718308899207271700,18.128271728515625,-0.02022271417081356,0.06681152433156967,-0.08462114632129669
1718308899257042400,18.17804248046875,-0.001210406655445695,0.09304925054311752,-0.044022053480148315
1718308899306813400,18.2278134765625,-0.006582801695913076,-0.038240596652030945,0.051595017313957214
1718308899356584400,18.27758447265625,-0.04683248698711395,-0.08213348686695099,0.0593128576874733
1718308899406355700,18.327355712890625,-0.02526514232158661,-0.12796355783939362,-0.029326463118195534
1718308899456125400,18.37712548828125,0.023188410326838493,0.04217381775379181,-0.018326543271541595
1718308899505896400,18.426896484375,-0.026549851521849632,0.0700153037905693,0.036376915872097015
1718308899555667700,18.476667724609374,-0.05185680463910103,0.08090949803590775,0.1719680279493332
1718308899605438500,18.5264384765625,-0.005321794655174017,0.1267978996038437,0.2638223171234131
1718308899655208700,18.576208740234375,0.09941127896308899,0.1345681995153427,0.19126929342746735
1718308899704979500,18.6259794921875,0.08503446727991104,0.1735944300889969,0.15328621864318848
1718308899754750500,18.67575048828125,0.03796602413058281,-0.062187474220991135,0.11196701228618622
1718308899804520400,18.7255205078125,-0.023326095193624496,-0.1622576117515564,0.012470784597098827
1718308899854291500,18.77529150390625,-0.06199892237782478,0.07171253859996796,-0.08379742503166199
1718308899904062500,18.8250625,0.05837702378630638,0.0030652983114123344,-0.1382148563861847
1718308899953833500,18.87483349609375,0.004805674310773611,-0.014843394979834557,-0.12523168325424194
1718308900003603500,18.924603515625,-0.04049256443977356,-0.2031262218952179,-0.18375225365161896
1718308900053374500,18.97437451171875,-0.04692356660962105,-0.1953609734773636,-0.2342897355556488
1718308900103145500,19.0241455078125,0.008502407930791378,-0.055995624512434006,-0.23153789341449738
1718308900152915500,19.07391552734375,0.04701358079910278,0.11272361874580383,-0.1153726652264595
1718308900202686500,19.1236865234375,0.0314766988158226,0.13550376892089844,-0.09462850540876389
1718308900252457500,19.17345751953125,-0.033185649663209915,0.1327172964811325,-0.01113520935177803
1718308900302228500,19.223228515625,-0.01830230839550495,0.04334001615643501,0.024900022894144058
1718308900351998500,19.27299853515625,-0.022819029167294502,-0.028481442481279373,0.07547478377819061
1718308900401769500,19.32276953125,-0.012500345706939697,-0.11953545361757278,0.052019525319337845
1718308900451540500,19.37254052734375,-0.04616376757621765,-0.1536950170993805,0.06477846205234528
1718308900501310500,19.422310546875,-0.02347097173333168,-0.1533067375421524,0.07707294821739197
1718308900551081500,19.47208154296875,0.04573472961783409,-0.0661606416106224,0.15775234997272491
1718308900600852500,19.5218525390625,0.09078875929117203,-0.041965026408433914,0.2392522692680359
1718308900650622500,19.57162255859375,0.0847628265619278,0.06848664581775665,0.22564031183719635
1718308900700393700,19.621393798828127,0.06468871235847473,0.0073348782025277615,0.20042124390602112
1718308900750164700,19.671164794921875,0.014794126152992249,-0.08669468015432358,0.105705127120018
1718308900799934700,19.720934814453123,-0.045222073793411255,0.00959776621311903,-0.011776232160627842
1718308900849705700,19.770705810546875,-0.010853978805243969,0.07525400817394257,-0.10568781197071075
1718308900899476700,19.820476806640624,0.03304477035999298,-0.01955532468855381,-0.14272359013557434
1718308900949246700,19.870246826171876,-0.014417821541428566,-0.11686856299638748,-0.17283809185028076
1718308900999017700,19.920017822265624,-0.10151916742324829,-0.12127555906772614,-0.16665077209472656
1718308901048788700,19.969788818359376,-0.05018647015094757,-0.07256661355495453,-0.2294800579547882
1718308901098558700,20.019558837890624,0.04803436994552612,0.09527112543582916,-0.14466796815395355
1718308901148329700,20.069329833984376,0.04536348581314087,0.04392511397600174,-0.10657331347465515
1718308901198099700,20.119099609375,-0.056594036519527435,0.11770985275506973,0.011683021672070026
1718308901247870700,20.16887060546875,-0.011889416724443436,-0.02201981469988823,0.036183036863803864
1718308901297641700,20.218641845703125,0.029348034411668777,-0.17488153278827667,0.018602978438138962
1718308901347411700,20.26841162109375,-0.007424360606819391,-0.1586913764476776,-0.025588983669877052
1718308901397182700,20.3181826171875,-0.07834939658641815,-0.1360262781381607,0.044373854994773865
1718308901446952700,20.36795263671875,-0.005067463032901287,-0.17286019027233124,0.040952228009700775
1718308901496723700,20.4177236328125,0.06585437804460526,0.04104384034872055,0.14803606271743774
1718308901546494700,20.46749462890625,0.08829763531684875,0.04477626085281372,0.2421412616968155
1718308901596265000,20.517264892578126,-0.0030423952266573906,0.06428337842226028,0.3272721469402313
1718308901646035700,20.56703564453125,-0.0018354506464675069,-0.01176318246871233,0.28116297721862793
1718308901695805700,20.6168056640625,0.21201372146606445,-0.3452708423137665,-0.04519996792078018
1718308901745577000,20.666576904296875,0.033787790685892105,0.0676213875412941,-0.019809391349554062
1718308901795348000,20.716347900390623,0.003310841741040349,0.015588547103106976,-0.07560528069734573
1718308901845117700,20.76611767578125,-0.033907633274793625,-0.020596621558070183,-0.1665130853652954
1718308901894889000,20.815888916015624,-0.029049495235085487,0.15527985990047455,-0.1822020262479782
1718308901944658700,20.86565869140625,-0.014797854237258434,0.1298093944787979,-0.1740064173936844
1718308901994430000,20.915429931640624,-0.006904777605086565,-0.032940372824668884,-0.21448247134685516
1718308902044201000,20.965200927734376,-0.018912971019744873,0.05415324866771698,-0.19111429154872894
1718308902093970700,21.014970703125,0.022953519597649574,0.05603983253240585,-0.11301656812429428
1718308902143742000,21.064741943359376,0.020107664167881012,0.0636972188949585,-0.05746569111943245
1718308902193512000,21.114511962890624,0.025492044165730476,0.018701516091823578,0.007577492389827967
1718308902243282700,21.16428271484375,-0.0022391858510673046,-0.04126488044857979,0.0030096382834017277
1718308902293053000,21.214052978515625,-0.009518936276435852,-0.011128551326692104,-0.020198479294776917
1718308902342823700,21.26382373046875,-0.006709301844239235,-0.08047806471586227,-0.04752837121486664
1718308902392594000,21.313593994140625,-0.040649693459272385,-0.06791966408491135,0.019335880875587463
1718308902442365000,21.363364990234373,-0.01799977384507656,-0.05688858404755592,0.14584322273731232
1718308902492135700,21.4131357421875,0.023382820188999176,-0.03912849351763725,0.24338576197624207
1718308902541906000,21.462906005859374,-0.01636059768497944,-0.0006916229031048715,0.2755298316478729
1718308902591677000,21.512677001953126,-0.027964256703853607,0.021854965016245842,0.23275308310985565
1718308902641447000,21.562447021484374,0.019168900325894356,-0.0344139002263546,0.06965337693691254
1718308902691218200,21.61221826171875,0.023023827001452446,0.08221471309661865,0.000003728425554072601
1718308902740988200,21.66198828125,-0.05976666137576103,0.2673872411251068,-0.12510812282562256
1718308902790759400,21.711759521484375,-0.0021550299134105444,0.01678457297384739,-0.1156163439154625
1718308902840529200,21.761529052734375,-0.009148756973445415,-0.22741611301898956,-0.13502226769924164
1718308902890300200,21.811300048828127,-0.08721160143613815,-0.09995855391025543,-0.20242740213871002
1718308902940070100,21.861070068359375,-0.0024567660875618458,-0.04788177087903023,-0.23381541669368744
1718308902989841200,21.910841064453123,0.04698029160499573,0.07717601209878922,-0.11572526395320892
1718308903039611400,21.960611328125,-0.029827404767274857,0.2492806613445282,-0.09275683760643005
1718308903089382100,22.010382080078124,-0.037946850061416626,0.21352426707744598,0.03591778874397278
1718308903139152400,22.06015234375,0.032169654965400696,-0.0998443067073822,0.08616551011800766
1718308903188923100,22.109923095703124,-0.06085482984781265,0.1392955780029297,0.033487387001514435
1718308903238693000,22.159693115234376,-0.009195628575980663,0.045697715133428574,-0.032052475959062576
1718308903288464400,22.20946435546875,0.03061809577047825,0.025068867951631546,-0.04906128719449043
1718308903338234000,22.259234130859376,-0.0843508318066597,0.060323528945446014,-0.0021262678783386946
1718308903388005400,22.30900537109375,-0.09256402403116226,-0.1412346214056015,0.04746685177087784
1718308903437775000,22.358775146484376,0.023632625117897987,-0.16814054548740387,0.153132826089859
1718308903487546000,22.408546142578125,0.06881821155548096,-0.13183791935443878,0.19519558548927307
1718308903537316400,22.45831640625,-0.006126602180302143,-0.011512046679854393,0.2465573102235794
1718308903587086000,22.508086181640625,0.04083877429366112,-0.06573586910963058,0.18092530965805054
1718308903636857300,22.557857421875,0.12032561004161835,-0.223929762840271,0.03057601861655712
1718308903686626600,22.60762646484375,0.00492125516757369,-0.10995738953351974,-0.06072166934609413
1718308903736397600,22.6573974609375,-0.03610101342201233,-0.04568413272500038,-0.08946942538022995
1718308903786167600,22.70716748046875,0.015410381369292736,0.090174101293087,-0.07765404880046844
1718308903835938600,22.7569384765625,-0.018062356859445572,0.24277588725090027,-0.13740739226341248
1718308903885708500,22.80670849609375,-0.0685601532459259,0.1818707287311554,-0.16636846959590912
1718308903935479300,22.856479248046874,-0.0890561044216156,0.11887764930725098,-0.19401581585407257
1718308903985249500,22.90624951171875,0.019246932119131088,-0.09245163947343826,-0.20845946669578552
1718308904035019500,22.95601953125,0.02971741557121277,-0.002153698354959488,-0.12270514667034149
1718308904084790500,23.00579052734375,0.004775314126163721,-0.06288415938615799,-0.06823418289422989
1718308904134560500,23.055560546875,-0.008333830162882805,-0.10872621089220047,0.01715874671936035
1718308904184331500,23.10533154296875,0.009168997406959534,0.03194088861346245,0.06684268265962601
1718308904234101500,23.1551015625,0.004328435752540827,0.035529498010873795,0.020190488547086716
1718308904283872500,23.20487255859375,-0.0032378712203353643,-0.1592618227005005,-0.011293134652078152
1718308904333642500,23.254642578125,-0.04134770482778549,-0.10965964943170547,0.0227388683706522
1718308904383412500,23.30441259765625,0.0028096348978579044,-0.03983663022518158,0.14545227587223053
1718308904433183500,23.35418359375,0.04730386659502983,-0.011432417668402195,0.24513092637062073
1718308904482953500,23.403953369140623,0.007197459228336811,-0.012112323194742203,0.23818247020244598
1718308904532724700,23.453724853515624,0.013826599344611168,0.007576426956802607,0.17614467442035675
1718308904582494500,23.503494384765624,0.06476594507694244,-0.07030238956212997,0.17385302484035492
1718308904632264700,23.5532646484375,0.024148212745785713,0.06351852416992188,0.0696784108877182
1718308904682036000,23.603035888671876,0.03521950542926788,0.03851010650396347,-0.0035989959724247456
1718308904731806000,23.652805908203124,-0.005781456362456083,0.07636960595846176,-0.09804534167051315
1718308904781577200,23.7025771484375,-0.05934588238596916,-0.016810139641165733,-0.15342684090137482
1718308904831347000,23.752346923828124,-0.04436373710632324,-0.1134519949555397,-0.15159352123737335
1718308904881117200,23.8021171875,-0.03677266091108322,-0.05974269285798073,-0.2536676824092865
1718308904930888000,23.851887939453125,0.017596570774912834,0.05655701830983162,-0.2610616981983185
1718308904980658200,23.901658203125,0.02484063431620598,0.10625746101140976,-0.15032026171684265
1718308905030429200,23.95142919921875,0.09190195798873901,0.11522325873374939,-0.13031139969825745
1718308905080199000,24.001198974609373,0.012626312673091888,0.17236565053462982,-0.0027121631428599358
1718308905129969200,24.05096923828125,-0.009179117158055305,-0.025468342006206512,0.009395631961524487
1718308905179740000,24.100739990234374,0.0026181535795331,-0.07165447622537613,-0.005666141398251057
1718308905229510100,24.15051025390625,-0.016100140288472176,-0.17954792082309723,-0.04972068592905998
1718308905279279900,24.20027978515625,-0.0172658059746027,-0.11026711761951447,-0.012917929328978062
1718308905329051100,24.250051025390626,-0.05059792846441269,-0.04283641278743744,0.0678647980093956
1718308905378821000,24.299821044921874,-0.04676324501633644,0.00839747954159975,0.12334536761045456
1718308905428591900,24.349591796875,-0.0023928501177579165,-0.0027446537278592587,0.25281068682670593
1718308905478362000,24.399362060546874,0.01852947659790516,-0.0728859230875969,0.23546524345874786
1718308905528131800,24.4491318359375,-0.02123604714870453,0.08848405629396439,0.22307436168193817
1718308905577903000,24.498903076171874,0.09781044721603394,-0.0858459323644638,0.10408485680818558
1718308905627672800,24.5486728515625,0.032337967306375504,-0.013398629613220692,0.02827957458794117
1718308905677443300,24.598443359375,-0.028595158830285072,0.14395025372505188,-0.061942994594573975
1718308905727214300,24.64821435546875,0.02869769185781479,-0.04632888361811638,-0.04240657761693001
1718308905776984600,24.697984619140627,-0.010603109374642372,-0.08468452841043472,-0.10772859305143356
1718308905826754300,24.74775439453125,-0.05078834667801857,0.040146354585886,-0.18226781487464905
1718308905876525300,24.797525390625,0.001279382617212832,-0.0354384183883667,-0.2363603413105011
1718308905926295300,24.84729541015625,0.004689027555286884,0.042502451688051224,-0.20069049298763275
1718308905976065300,24.897065185546875,-0.000254331884207204,0.1672465205192566,-0.12601599097251892
1718308906025836500,24.94683642578125,-0.0009209210984408855,0.162789449095726,-0.03609329089522362
1718308906075606300,24.996606201171875,0.007342068944126368,0.11652368307113647,-0.04339061677455902
1718308906125376500,25.04637646484375,-0.001371527905575931,0.03207777440547943,-0.02131008170545101
1718308906175147300,25.096147216796876,-0.020085293799638748,-0.015931561589241028,0.0032751555554568768
1718308906224917500,25.14591748046875,-0.0041529336012899876,-0.07826657593250275,-0.019243735820055008
1718308906274687200,25.195687255859376,-0.014682273380458355,-0.023424100130796432,0.017254620790481567
1718308906324458200,25.245458251953124,-0.03019571863114834,-0.07162438333034515,0.03549114987254143
1718308906374228200,25.295228271484376,-0.0685787945985794,0.031268175691366196,0.1591755449771881
1718308906423998500,25.34499853515625,-0.006390787661075592,-0.1012648344039917,0.23054425418376923
1718308906473769500,25.39476953125,0.030050311237573624,-0.05979675427079201,0.2363787144422531
1718308906523539200,25.444539306640625,0.09977932274341583,0.09332781285047531,0.13483025133609772
1718308906573309400,25.494309326171877,0.0621403343975544,-0.12088407576084137,0.14554788172245026
1718308906623079400,25.544079345703125,-0.001487109111621976,0.093435138463974,0.1375994086265564
1718308906672849700,25.593849609375,0.025063008069992065,0.17268867790699005,0.02467498555779457
1718308906722619600,25.64361962890625,0.1045069694519043,0.051240019500255585,-0.020135095342993736
1718308906772389600,25.6933896484375,-0.025175128132104874,0.08002639561891556,-0.09423408657312393
1718308906822160600,25.74316064453125,-0.07397222518920898,-0.0837998241186142,-0.13038517534732819
1718308906871930600,25.7929306640625,-0.033910296857357025,-0.05811123922467232,-0.18734432756900787
1718308906921700600,25.84270068359375,0.0037286917213350534,0.10717012733221054,-0.22829309105873108
1718308906971470600,25.892470703125,-0.0068155620247125626,0.22638599574565887,-0.19661691784858704
1718308907021241600,25.94224169921875,0.04664100334048271,0.18099215626716614,-0.18998537957668304
1718308907071011600,25.992011474609374,0.0018434401135891676,0.1043972447514534,-0.028851620852947235
1718308907120781600,26.041781494140626,-0.022580942139029503,-0.005640575196594,-0.0008471515611745417
1718308907170551600,26.091551513671874,-0.033789388835430145,-0.04838031530380249,0.011608985252678394
1718308907220322600,26.141322509765626,0.005499694030731916,0.03238057717680931,-0.005813147872686386
1718308907270092800,26.1910927734375,0.04921654984354973,0.05125706270337105,-0.0006410228670574725
1718308907319862500,26.240862548828126,-0.013686783611774445,0.10485770553350449,0.06946030259132385
1718308907369632800,26.2906328125,-0.05019525811076164,-0.04140176996588707,0.08596337586641312
1718308907419403500,26.340403564453126,-0.02352236956357956,-0.06704135239124298,0.17937375605106354
1718308907469173800,26.390173828125,0.02599351666867733,-0.18050479888916016,0.2180207520723343
1718308907518943500,26.439943603515626,-0.0057220677845180035,-0.09497231990098953,0.1925172507762909
1718308907568713700,26.489713623046875,0.002177400514483452,-0.12121617048978806,0.09297787398099899
1718308907618484700,26.539484619140627,0.007720503956079483,0.036366529762744904,-0.046012766659259796
1718308907668254700,26.589254638671875,0.045641787350177765,-0.05321821570396423,-0.019940951839089394
1718308907718024400,26.6390244140625,-0.0201026052236557,-0.06011739745736122,0.00242107966914773
1718308907767794700,26.688794677734375,-0.026623355224728584,0.03398193418979645,-0.03345835953950882
1718308907817565700,26.738565673828123,-0.022041119635105133,-0.07553630322217941,-0.10878586769104004
1718308907867335700,26.788335693359375,-0.00942279677838087,-0.05137157812714577,-0.21174180507659912
1718308907917105700,26.838105712890624,-0.029284385964274406,-0.04001745581626892,-0.20136693120002747
1718308907966875600,26.887875732421875,0.004482898861169815,-0.03453853726387024,-0.20298533141613007
1718308908016645600,26.937645751953124,-0.0060264673084020615,0.12594647705554962,-0.1360132247209549
1718308908066416400,26.98741650390625,0.02491760067641735,0.24119716882705688,-0.042983684688806534
1718308908116186600,27.0371865234375,-0.02087731845676899,0.23264603316783905,-0.0311611145734787
1718308908165956600,27.08695654296875,-0.00993039458990097,-0.011426825076341629,-0.018550248816609383
1718308908215726600,27.1367265625,0.03436862677335739,-0.07729531824588776,-0.04465588554739952
1718308908265496600,27.18649658203125,0.01745808683335781,-0.04235997423529625,-0.006927680689841509
1718308908315267600,27.236267578125,-0.0226224884390831,-0.17495130002498627,0.0006804376607760787
1718308908365037600,27.28603759765625,-0.07458209246397018,-0.07002222537994385,0.0695766806602478
1718308908414807600,27.3358076171875,0.00592659879475832,-0.08646032214164734,0.16308212280273438
1718308908464577800,27.385577880859376,0.010277670808136463,-0.12243137508630753,0.2571636140346527
1718308908514347500,27.435347412109376,-0.018824288621544838,-0.10624387860298157,0.20187319815158844
1718308908564117800,27.48511767578125,0.051849350333213806,-0.04880029708147049,0.0968136265873909
1718308908613888500,27.534888427734376,0.1218382865190506,-0.025411883369088173,0.04373522847890854
1718308908663658500,27.584658447265625,0.02575995773077011,0.12866716086864471,0.004514856729656458
1718308908713428500,27.634428466796876,-0.022653380408883095,-0.020599018782377243,-0.04433923587203026
1718308908763198500,27.684198486328125,-0.013362676836550236,-0.16586486995220184,-0.10720102488994598
1718308908812968400,27.733968505859377,-0.005314870737493038,-0.19703316688537598,-0.1695576012134552
1718308908862739500,27.783739501953125,-0.04337730258703232,-0.12429212033748627,-0.19124345481395721
1718308908912509400,27.833509521484373,-0.04770520329475403,-0.07889721542596817,-0.1570308953523636
1718308908962279700,27.88327978515625,-0.01127901952713728,0.04351072385907173,-0.16817915439605713
1718308909012049400,27.93304931640625,0.042746931314468384,0.13276922702789307,-0.1670803278684616
1718308909061819600,27.982819580078125,0.05239236727356911,0.12268144637346268,-0.14152783155441284
1718308909111589400,28.03258935546875,0.011081147007644176,-0.06374728679656982,-0.06757930666208267
1718308909161359600,28.082359619140625,-0.019932961091399193,-0.15984532237052917,0.04314693808555603
1718308909211130400,28.13213037109375,-0.08079630881547928,-0.005303685087710619,0.14923343062400818
1718308909260900600,28.181900634765626,-0.07690117508172989,-0.06632043421268463,0.11598945409059525
1718308909310670300,28.23167041015625,-0.008412392809987068,-0.05516258627176285,0.008846755139529705
1718308909360440600,28.281440673828126,0.026186596602201462,0.04032318666577339,-0.01948501728475094
1718308909410210300,28.331210205078126,0.0030538467690348625,0.027781030163168907,0.09455712884664536
1718308909459980500,28.38098046875,0.04911987483501434,-0.058339472860097885,0.17879344522953033
1718308909509751600,28.43075146484375,0.09358720481395721,-0.0656069740653038,0.2563154101371765
1718308909559521500,28.480521484375,0.04319247603416443,0.07164302468299866,0.24798236787319183
1718308909609291500,28.53029150390625,0.09046278893947601,-0.06222609058022499,0.19850164651870728
1718308909659061500,28.5800615234375,0.06100316718220711,-0.10246778279542923,0.1122857928276062
1718308909708832300,28.629832275390626,-0.008445150218904018,-0.005909288302063942,-0.0653233453631401
1718308909758602500,28.6796025390625,0.002067678142338991,0.11796791851520538,-0.11766884475946426
1718308909808372200,28.729372314453126,0.021802766248583794,0.11661449819803238,-0.15212881565093994
1718308909858143200,28.779143310546875,-0.028361067175865173,0.11224637925624847,-0.19055156409740448
1718308909907913500,28.82891357421875,-0.05145413428544998,0.14021515846252441,-0.21391361951828003
1718308909957683200,28.87868310546875,0.006536462344229221,0.0929054394364357,-0.2457309365272522
1718308910007453400,28.928453369140627,0.047867923974990845,0.13656316697597504,-0.15409795939922333
1718308910057223400,28.978223388671875,0.007166566327214241,0.0635179877281189,-0.08730906993150711
1718308910106993400,29.027993408203123,-0.021146031096577644,0.019298063591122627,-0.0006644586683250964
1718308910156763400,29.077763427734375,-0.00478436890989542,-0.010160491801798344,0.029271069914102554
1718308910206533400,29.127533447265623,0.011895807459950447,0.030437534675002098,0.019526563584804535
1718308910256303400,29.177303466796875,-0.01261086668819189,-0.05440545082092285,0.010548780672252178
1718308910306074400,29.227074462890624,-0.07778587192296982,-0.021732192486524582,0.05079713463783264
1718308910355844400,29.27684423828125,-0.12460611015558243,-0.034200578927993774,0.10773418843746185
1718308910405614300,29.3266142578125,-0.02913391776382923,-0.03845631331205368,0.26165345311164856
1718308910455384300,29.37638427734375,0.020142551511526108,-0.14659956097602844,0.302868515253067
1718308910505154300,29.426154296875,0.0028421254828572273,-0.074381023645401,0.30093905329704285
1718308910554924300,29.47592431640625,-0.005842708982527256,-0.15653155744075775,0.1894780546426773
1718308910604694300,29.5256943359375,0.07626547664403915,-0.22124449908733368,0.07940427958965302
1718308910654464300,29.57546435546875,0.08906303346157074,-0.2352314293384552,-0.03151611611247063
1718308910704234200,29.625234130859376,0.00583631731569767,-0.25788772106170654,-0.086421437561512
1718308910754005200,29.675005126953124,-0.031511321663856506,0.0382070392370224,-0.09780778735876083
1718308910803775200,29.724775146484376,0.03699024021625519,0.26897475123405457,-0.1223357692360878
1718308910853545200,29.774545166015624,0.01739869825541973,0.2607458531856537,-0.11700305342674255
1718308910903315200,29.824315185546876,-0.08171936124563217,0.30892348289489746,-0.11643792688846588
1718308910953085200,29.874085205078124,-0.053225405514240265,0.2591990828514099,-0.15841759741306305
1718308911002855400,29.92385546875,0.029042037203907967,0.1905885934829712,-0.14944541454315186
1718308911052625200,29.973625244140624,0.01799817569553852,0.0882214680314064,-0.12042707949876785
1718308911102395400,30.0233955078125,0.012260394170880318,-0.10584733635187149,-0.06893885135650635
1718308911152165000,30.0731650390625,-0.009041964076459408,-0.0492333248257637,0.002272208919748664
1718308911201935400,30.122935302734376,0.013411412946879864,-0.038358841091394424,0.0024972460232675076
1718308911251706000,30.1727060546875,0.01774757169187069,0.06049690023064613,-0.10164220631122589
1718308911301476400,30.222476318359377,-0.014495586045086384,0.19917328655719757,-0.07749105989933014
1718308911351246000,30.27224609375,-0.009258479811251163,0.03699343651533127,0.035831235349178314
1718308911401016300,30.322016357421877,-0.09562931954860687,-0.035954803228378296,0.15174292027950287
1718308911450786000,30.3717861328125,-0.12609055638313293,-0.3422188460826874,0.18508143723011017
1718308911500556300,30.421556396484377,-0.002936401404440403,-0.5022761821746826,-0.04423270747065544
1718308911550326300,30.471326171875,0.0214815903455019,-0.005874933209270239,-0.1086103692650795
1718308911600096300,30.52109619140625,0.1290770322084427,0.18040280044078827,-0.15198713541030884
1718308911649866200,30.5708662109375,0.06997722387313843,0.12917928397655487,0.03729650378227234
1718308911699636500,30.620636474609373,-0.019453592598438263,0.041312817484140396,0.13774853944778442
1718308911749407200,30.6704072265625,-0.05608271062374115,-0.09317122399806976,0.20176294445991516
1718308911799177500,30.720177490234374,-0.10613788664340973,0.0013688647886738181,0.11226528882980347
1718308911848947200,30.769947265625,-0.010261159390211105,0.015676697716116905,-0.2423601746559143
1718308911898717400,30.819717529296874,0.053160157054662704,-0.009711749851703644,-0.25607067346572876
1718308911948487200,30.869487060546874,-0.00395852280780673,-0.1965165138244629,-0.11580755561590195
1718308911998257400,30.91925732421875,-0.05536072701215744,-0.025730663910508156,-0.055684566497802734
1718308912048027400,30.96902734375,-0.032167788594961166,0.08893626183271408,-0.040477119386196136
1718308912097797400,31.01879736328125,0.09685197472572327,0.12364843487739563,-0.06314994394779205
1718308912147567600,31.068567626953126,0.09567379206418991,0.0932505875825882,-0.0608242005109787
1718308912197338400,31.11833837890625,-0.012413525953888893,0.14272120594978333,-0.05275482311844826
1718308912247108400,31.1681083984375,0.022281603887677193,-0.018270617350935936,0.007810784969478846
1718308912296878300,31.21787841796875,0.04161854833364487,-0.012629508972167969,0.04050694778561592
1718308912346648600,31.267648681640626,-0.06768237799406052,0.1651277095079422,0.02015267312526703
1718308912396418300,31.317418212890626,-0.060932327061891556,0.23490040004253387,-0.0022413162514567375
1718308912446188500,31.3671884765625,-0.029355758801102638,-0.06847652792930603,-0.03195447102189064
1718308912495958300,31.416958251953126,-0.003681021276861429,0.018192319199442863,0.04158898815512657
1718308912545728500,31.466728515625,0.05732853710651398,-0.07153623551130295,0.1410178393125534
1718308912595498200,31.516498291015626,0.02183366008102894,0.07705963402986526,0.2123599350452423
1718308912645269500,31.56626953125,-0.010581005364656448,0.15978673100471497,0.18104301393032074
1718308912695039200,31.616039306640626,0.04831107333302498,0.23996971547603607,0.20874814689159393
1718308912744809500,31.6658095703125,0.029158683493733406,-0.06920170783996582,0.10074205696582794
1718308912794579200,31.7155791015625,-0.039629168808460236,0.012937369756400585,0.052744969725608826
1718308912844349400,31.765349365234375,-0.036316730082035065,-0.09956946969032288,-0.030521158128976822
1718308912894119200,31.815119140625,-0.037163615226745605,-0.06763257086277008,-0.12208889424800873
1718308912943889400,31.864889404296875,-0.008641690947115421,-0.02683267928659916,-0.18157751858234406
1718308912993659100,31.9146591796875,-0.010940265841782093,-0.10603003203868866,-0.06593453884124756
1718308913043429400,31.964429443359375,-0.016596820205450058,-0.1729709804058075,-0.10263396799564362
1718308913093200400,32.01420043945313,-0.05014066398143768,0.06963899731636047,-0.08953174948692322
1718308913142970400,32.06397045898437,0.01738138683140278,0.2267279475927353,-0.16411197185516357
1718308913192740400,32.113740234375,0.08071881532669067,0.06040288880467415,-0.06381946057081223
1718308913242510300,32.16351025390625,0.00708747049793601,0.0312841534614563,0.05999036505818367
1718308913292280300,32.2132802734375,0.06209186837077141,-0.22415906190872192,0.06136642023921013
1718308913342050300,32.26305029296875,0.014772821217775345,0.020262926816940308,0.03062795102596283
1718308913391820500,32.312820556640624,-0.046178948134183884,0.2390485405921936,0.001275920425541699
1718308913441590300,32.36259033203125,-0.1371690332889557,0.053403571248054504,-0.06185857206583023
1718308913491361300,32.412361328125,-0.15571662783622742,0.2611839175224304,0.09818409383296967
1718308913541131300,32.46213134765625,0.09181913733482361,0.0202791728079319,0.07199909538030624
1718308913590901200,32.5119013671875,0.025201493874192238,0.1440003216266632,0.21912303566932678
1718308913640671200,32.56167114257813,0.011239605024456978,-0.0015158712631091475,0.2110363394021988
1718308913690440400,32.6114404296875,-0.000358461489668116,-0.14217764139175415,0.14818334579467773
1718308913740210400,32.66121044921875,-0.023024093359708786,-0.1566183716058731,0.022936474531888962
1718308913789980400,32.71098046875,0.02201635204255581,-0.25873807072639465,-0.10054871439933777
1718308913839750700,32.760750732421876,0.015604259446263313,-0.2614412009716034,-0.0396435484290123
1718308913889521700,32.810521728515624,-0.07184462994337082,-0.24164192378520966,-0.025684325024485588
1718308913939291400,32.86029150390625,-0.07905087620019913,-0.22583073377609253,-0.1141074001789093
1718308913989061600,32.9100615234375,0.026374083012342453,-0.24288535118103027,-0.22299686074256897
1718308914038831400,32.95983129882813,0.04944664612412453,-0.013584784232079983,-0.12741947174072266
1718308914088601600,33.0096015625,-0.008282963186502457,-0.0091759217903018,-0.1066657230257988
1718308914138371600,33.05937158203125,-0.0196852870285511,0.09024947136640549,-0.10751260817050934
1718308914188141600,33.1091416015625,0.09706449508666992,0.06896175444126129,-0.11696257442235947
1718308914237912300,33.158912353515625,0.05698259174823761,0.09169583022594452,0.005636846646666527
1718308914287682600,33.2086826171875,0.07663006335496902,-0.08276012539863586,0.006054163910448551
1718308914337452300,33.25845239257813,-0.010880078189074993,0.06948160380125046,0.019136942923069
1718308914387222500,33.30822241210937,-0.045821815729141235,0.0984051302075386,-0.06813085079193115
1718308914436992500,33.357992431640625,-0.024462997913360596,0.025728266686201096,-0.021152157336473465
1718308914486762500,33.40776245117188,-0.04101907089352608,-0.04704447463154793,0.03628769889473915
1718308914536532500,33.45753247070313,0.002511094557121396,-0.05128342658281326,0.10833419859409332
1718308914586303500,33.50730346679688,0.013157347217202187,-0.085664302110672,0.19815143942832947
1718308914636073500,33.55707348632812,-0.03214701637625694,0.09205935150384903,0.18186993896961212
1718308914685843500,33.60684350585937,0.09562026709318161,-0.27919915318489075,0.1393030285835266
1718308914735613700,33.65661376953125,0.06419336795806885,-0.3034818470478058,0.1365104466676712
1718308914785383400,33.70638354492188,0.008596417494118214,-0.27092763781547546,0.030348584055900574
1718308914835153700,33.75615356445312,0.00692102313041687,-0.11138564348220825,-0.06767571717500687
1718308914884924400,33.80592431640625,0.0007603325066156685,0.024116788059473038,-0.1514451801776886
1718308914934694700,33.85569458007812,-0.013806626200675964,0.19516150653362274,-0.1855325847864151
1718308914984464400,33.90546435546875,0.016099873930215836,0.04355093836784363,-0.18423481285572052
1718308915034234600,33.955234619140626,-0.030913440510630608,0.019933493807911873,-0.06890050321817398
1718308915084004400,34.00500439453125,-0.05181259661912918,0.08544725924730301,-0.023062974214553833
1718308915133775400,34.054775390625,0.004523379262536764,0.10565239191055298,-0.09779819846153259
1718308915183545600,34.10454565429688,0.059658270329236984,0.09398028999567032,-0.05499720573425293
1718308915233315600,34.15431567382812,0.11516200751066208,0.04061906412243843,0.04294826462864876
1718308915283085600,34.20408544921875,0.008568987250328064,-0.10826309025287628,0.12258823215961456
1718308915332855600,34.25385546875,-0.17442560195922852,0.07700743526220322,0.10957309603691101
1718308915382625500,34.30362548828125,-0.0860866829752922,-0.15368090569972992,-0.026614833623170853
1718308915432396300,34.353396240234375,0.08686459064483643,0.011263573542237282,-0.08147994428873062
1718308915482166500,34.40316650390625,0.024776719510555267,0.01392646785825491,0.057607103139162064
1718308915531936500,34.4529365234375,-0.06246444210410118,-0.00935328844934702,0.1664651483297348
1718308915581706500,34.50270654296875,0.02406139485538006,-0.0578414611518383,0.08074864000082016
1718308915631476500,34.5524765625,0.039563920348882675,-0.009037170559167862,0.024104004725813866
1718308915681247500,34.60224755859375,0.04018363729119301,0.1399853378534317,-0.036787308752536774
1718308915731018200,34.65201831054687,0.03737666830420494,-0.053699713200330734,-0.056962884962558746
1718308915780788500,34.70178857421875,-0.019148394465446472,0.01768818311393261,0.021334050223231316
1718308915830558200,34.75155810546875,-0.0042706448584795,-0.0006415555253624916,-0.0024921861477196217
1718308915880328400,34.80132836914063,0.02256016992032528,0.028477447107434273,-0.034927625209093094
1718308915930098200,34.85109814453125,0.007503722794353962,0.010911237448453903,-0.18380126357078552
1718308915979869400,34.90086938476563,0.024386832490563393,0.028264660388231277,-0.13580763339996338
1718308916029639400,34.95063940429687,0.02677115984261036,0.022409701719880104,-0.03509007766842842
1718308916079409400,35.000409423828124,-0.018155034631490707,0.158699631690979,-0.02142513170838356
1718308916129179400,35.050179443359376,0.0667814239859581,0.07942212373018265,-0.01950046420097351
1718308916178949400,35.09994946289063,0.09499096125364304,0.080686055123806,-0.034820299595594406
1718308916228720400,35.149720458984376,0.14722460508346558,0.02010420337319374,0.020416324958205223
1718308916278490400,35.19949047851563,-0.017476994544267654,0.052735116332769394,0.05156731978058815
1718308916328260400,35.24926025390625,-0.05818793922662735,-0.045094508677721024,0.014769358560442924
1718308916378030300,35.2990302734375,-0.05495805665850639,-0.008510664105415344,0.020261595025658607
1718308916427800300,35.34880029296875,-0.03617371618747711,-0.00663420045748353,0.001925199176184833
1718308916477570300,35.3985703125,-0.047919854521751404,-0.09338826686143875,0.09908530116081238
1718308916527341300,35.44834130859375,-0.04601462930440903,-0.28316032886505127,0.1106274425983429
1718308916577111600,35.49811157226563,-0.01900618150830269,-0.3760870695114136,0.06569405645132065
1718308916626881300,35.54788134765625,0.0017955031944438815,-0.11989790946245193,0.061767492443323135
1718308916676651500,35.597651611328125,0.06727065145969391,0.04956968501210213,0.06330786645412445
1718308916726421000,35.6474208984375,0.061770424246788025,0.17722085118293762,0.11208765208721161
1718308916776192000,35.69719189453125,-0.02448457106947899,0.2406861037015915,0.09720271825790405
1718308916825962000,35.7469619140625,-0.013365340419113636,0.010611365549266338,0.007115167565643787
1718308916875732000,35.79673193359375,0.0020511667244136333,-0.10124113410711288,0.0005789712304249406
1718308916925502000,35.846501953125,-0.037100762128829956,-0.07911026477813721,-0.1327894777059555
1718308916975272000,35.89627197265625,-0.061824217438697815,0.11965396255254745,-0.2691960632801056
1718308917025043000,35.94604296875,0.03888960927724838,0.14940519630908966,-0.23287372291088104
1718308917074813200,35.995813232421874,0.14486530423164368,0.03554467856884003,-0.06830661743879318
1718308917124583000,36.0455830078125,-0.05565766990184784,0.07389606535434723,0.08347439020872116
1718308917174353200,36.09535327148438,-0.0346626378595829,0.10361720621585846,0.01816621981561184
1718308917224123000,36.14512280273438,0.055567655712366104,0.17714814841747284,-0.06701978296041489
1718308917273894100,36.19489404296875,0.14544375240802765,0.10722152888774872,-0.03942729905247688
1718308917323664000,36.24466381835938,0.05938423052430153,-0.13603347539901733,0.0236483383923769
1718308917373434000,36.29443408203125,-0.10025762766599655,0.1834433227777481,0.115260548889637
1718308917423203800,36.344203857421874,-0.04280418902635574,-0.02828143909573555,-0.010055829770863056
1718308917472974000,36.39397412109375,0.005958023946732283,-0.0638895034790039,-0.04668894037604332
1718308917522745000,36.4437451171875,-0.029676668345928192,-0.10862234979867935,0.025247300043702126
1718308917572515000,36.49351513671875,-0.00634977500885725,-0.08683023601770401,0.16727207601070404
1718308917622285000,36.54328515625,-0.026016952469944954,-0.14084340631961823,0.12923948466777802
1718308917672055000,36.59305493164062,-0.032587237656116486,-0.048280712217092514,0.09560908377170563
1718308917721825000,36.642824951171875,-0.012469186447560787,0.04517786577343941,0.0434260368347168
1718308917771595300,36.69259521484375,0.04978140443563461,0.08147542178630829,-0.04501567780971527
1718308917821366000,36.742365966796875,0.014164554886519909,-0.006143379956483841,-0.01678697019815445
1718308917871136300,36.79213623046875,0.018146246671676636,-0.22820547223091125,-0.06298908591270447
1718308917920906000,36.84190600585937,-0.043000198900699615,-0.23849833011627197,-0.06298135966062546
1718308917970676200,36.89167626953125,-0.07193198055028915,-0.06876255571842194,-0.1552726775407791
1718308918020446000,36.941446044921875,0.01859312504529953,0.0036996633280068636,-0.21149998903274536
1718308918070217200,36.99121728515625,0.03927922993898392,-0.022669892758131027,-0.12408333271741867
1718308918119987200,37.0409873046875,-0.011899003759026527,0.023803599178791046,-0.024228906258940697
1718308918169757200,37.09075708007813,0.006587328854948282,0.10638502985239029,0.010822554118931293
1718308918219527200,37.14052709960937,0.04060894623398781,0.16718898713588715,-0.04669639840722084
1718308918269297200,37.190297119140624,0.198616161942482,0.24789102375507355,-0.10275407880544662
1718308918319068200,37.24006811523437,0.0752452164888382,-0.04145796224474907,0.004750546533614397
1718308918368838100,37.289838134765624,-0.07732035219669342,-0.01739017479121685,0.05600574612617493
1718308918418608000,37.339608154296876,-0.15642955899238586,0.10983408987522125,0.035350535064935684
1718308918468378000,37.38937817382813,0.0020240023732185364,0.08641451597213745,-0.07725989818572998
1718308918518148000,37.43914819335937,-0.028314728289842606,0.16538123786449432,-0.03569834306836128
1718308918567918000,37.48891796875,-0.056583650410175323,0.36025431752204895,0.26448437571525574
1718308918617689000,37.53868920898437,0.022230736911296844,-0.09246309101581573,0.2262033075094223
1718308918667459300,37.588459228515624,-0.07376956194639206,-0.0620921328663826,0.17743469774723053
1718308918717229000,37.63822900390625,-0.0065508438274264336,-0.24014681577682495,-0.021558554843068123
1718308918766999000,37.6879990234375,0.1075698658823967,-0.08028232306241989,-0.057131197303533554
1718308918816769000,37.73776904296875,0.09034986793994904,0.017643442377448082,0.06318403035402298
1718308918866540300,37.78754028320313,-0.013455887325108051,-0.1378215104341507,0.02058490365743637
1718308918916310000,37.83731005859375,-0.044566135853528976,-0.10323184728622437,-0.04628041386604309
1718308918966080300,37.887080322265625,-0.038290396332740784,-0.008082161657512188,-0.15159724652767181
1718308919015850000,37.93685009765625,0.051119908690452576,-0.03314703330397606,-0.2246783822774887
1718308919065620200,37.9866201171875,0.008735168725252151,-0.11682967841625214,-0.1649857610464096
1718308919115390000,38.03638989257813,-0.05565447360277176,-0.000371777277905494,-0.03514999896287918
1718308919165161200,38.0861611328125,-0.016927585005760193,0.05627339333295822,-0.045517683029174805
1718308919214931000,38.13593090820312,0.04253840446472168,-0.014197045005857944,-0.02900155819952488
1718308919264701200,38.185701171875,0.0711764395236969,0.10164300352334976,-0.05109966918826103
1718308919314471000,38.235470947265625,0.10419431328773499,-0.03322772681713104,0.028190892189741135
1718308919364241200,38.2852412109375,-0.024418523535132408,-0.18239110708236694,0.042939212173223495
1718308919414012200,38.33501220703125,-0.06429137289524078,-0.021918348968029022,0.056779924780130386
1718308919463782100,38.3847822265625,-0.01209714263677597,0.11548132449388504,0.019996078684926033
1718308919513552100,38.43455224609375,-0.0029915287159383297,-0.19943933188915253,-0.07373840361833572
1718308919563322000,38.484322021484374,-0.1847730427980423,0.21757467091083527,0.13661164045333862
1718308919613092000,38.534092041015626,-0.015860987827181816,-0.34795185923576355,0.08471968024969101
1718308919662862000,38.58386206054688,0.015057246200740337,-0.013701697811484337,0.20144842565059662
1718308919712632600,38.633632568359374,0.06054963171482086,0.07747854292392731,0.08525524288415909
1718308919762402800,38.68340283203125,0.05054599791765213,0.07875872403383255,0.029589584097266197
1718308919812172800,38.7331728515625,0.016411464661359787,0.08631198853254318,0.01828313246369362
1718308919861942800,38.78294287109375,-0.027828434482216835,-0.08130790293216705,0.017786720767617226
1718308919911712800,38.832712646484374,-0.04234053194522858,-0.17904378473758698,-0.04821440204977989
1718308919961482800,38.882482666015626,-0.07456930726766586,-0.11688507348299026,-0.12308837473392487
1718308920011253800,38.932253662109375,0.011138937436044216,-0.15174345672130585,-0.18314824998378754
1718308920061023700,38.98202368164063,0.03756202384829521,-0.04530622810125351,-0.10092528164386749
1718308920110793700,39.03179370117188,-0.015238340944051743,-0.015461248345673084,-0.07859307527542114
1718308920160563700,39.08156372070312,0.012615926563739777,0.019061041995882988,-0.07764366269111633
1718308920210334000,39.131333984375,0.04541595280170441,0.10252451151609421,-0.09341783076524734
1718308920260103700,39.18110375976563,0.11940629035234451,-0.004005660768598318,-0.11956235021352768
1718308920309874000,39.2308740234375,0.14120718836784363,0.1465281844139099,-0.053759634494781494
1718308920359645000,39.28064501953125,-0.011396464891731739,0.03068201243877411,0.061595987528562546
1718308920409414700,39.33041455078125,-0.09997959434986115,0.09672041982412338,0.10302066057920456
1718308920459185000,39.38018481445312,-0.05548376590013504,-0.033372338861227036,0.0005427522119134665
1718308920508955000,39.429954833984375,-0.0350024588406086,-0.06894311308860779,-0.04867619276046753
1718308920558724900,39.47972485351563,0.004421379882842302,-0.22904756665229797,0.08760228753089905
1718308920608494800,39.52949487304687,-0.061219148337841034,0.07211334258317947,0.19651705026626587
1718308920658265900,39.57926586914063,-0.0648045614361763,0.11733435094356537,0.29967060685157776
1718308920708036000,39.6290361328125,-0.03684590011835098,0.13191835582256317,0.24237215518951416
1718308920757806300,39.678806396484376,-0.0367625430226326,0.14674603939056396,0.004727377090603113
1718308920807576000,39.728576171875,0.005635515321046114,0.05670216307044029,-0.06887254118919373
1718308920857346300,39.77834619140625,0.016708938404917717,-0.094200000166893,-0.0703042596578598
1718308920907116300,39.8281162109375,-0.03678810968995094,-0.12982884049415588,-0.0004929511342197657
1718308920956886300,39.87788623046875,-0.08931762725114822,-0.11069376021623611,-0.07106298953294754
1718308921006657000,39.92765698242187,-0.001657018787227571,-0.16059421002864838,-0.2194170355796814
1718308921056427300,39.97742724609375,0.060803428292274475,-0.07244890183210373,-0.20797929167747498
1718308921106197000,40.027197021484376,0.06361306458711624,-0.16440865397453308,-0.12269582599401474
1718308921155967200,40.07696728515625,0.02468270994722843,-0.04734807461500168,-0.05281687527894974
1718308921205737200,40.1267373046875,0.02257588319480419,0.0404486246407032,0.02546168491244316
1718308921255507200,40.176507080078125,0.09368175268173218,0.035352397710084915,-0.04549477994441986
1718308921305277400,40.22627734375,0.08104877918958664,0.32020118832588196,-0.034638404846191406
1718308921355048200,40.276048095703125,-0.018331602215766907,0.11840227991342545,0.05053534731268883
1718308921404818200,40.32581811523438,-0.0029800771735608578,0.011000986211001873,0.016580307856202126
1718308921454588200,40.37558813476563,-0.0390603169798851,0.12627750635147095,-0.07442363351583481
1718308921504358400,40.4253583984375,-0.10549792647361755,0.18553709983825684,-0.084682397544384
1718308921554128100,40.475128173828125,-0.09775132685899734,-0.07103423029184341,-0.0012170645641162992
1718308921603898400,40.5248984375,-0.0762641429901123,-0.029330724850296974,0.24219346046447754
1718308921653668000,40.57466821289062,-0.0075908079743385315,0.023119701072573662,0.2322164624929428
1718308921703437600,40.6244375,0.06307616829872131,0.18279404938220978,0.11891680210828781
1718308921753208600,40.67420849609375,0.08566829562187195,0.14984329044818878,0.0009259810904040933
1718308921802978600,40.723978515625,0.003201385959982872,0.07946473360061646,0.0534464456140995
1718308921852748500,40.77374853515625,-0.020662400871515274,-0.2042926847934723,-0.03569301590323448
1718308921902518500,40.8235185546875,-0.016212791204452515,-0.264088898897171,-0.019879698753356934
1718308921952288500,40.87328857421875,0.021032314747571945,-0.07092797011137009,-0.02509550005197525
1718308922002058500,40.92305859375,-0.007528756279498339,-0.051956143230199814,-0.1375698447227478
1718308922051828700,40.972828857421874,-0.06138133630156517,0.0738728940486908,-0.17573215067386627
1718308922101598500,41.022598388671874,0.023550866171717644,-0.03845338150858879,-0.10064458847045898
1718308922151369500,41.07236938476562,0.03446343541145325,-0.19191351532936096,-0.014899320900440216
1718308922201139700,41.1221396484375,-0.037328463047742844,0.1380726546049118,-0.02424168959259987
1718308922250909400,41.171909423828126,0.01324123702943325,0.24177321791648865,-0.07542551308870316
1718308922300679700,41.2216796875,0.09177439659833908,0.38643985986709595,-0.046008504927158356
1718308922350449700,41.27144970703125,0.11982840299606323,-0.1491846889257431,-0.049439188092947006
1718308922400219600,41.3212197265625,-0.020871993154287338,-0.2339608371257782,0.0545700341463089
1718308922449989600,41.37098974609375,-0.09291449189186096,-0.07850945740938187,0.0913648009300232
1718308922499759600,41.42075952148438,0.006082127336412668,-0.19066661596298218,-0.07986393570899963
1718308922549529600,41.47052954101562,-0.027053721249103546,0.0888233482837677,-0.04646843299269676
1718308922599300600,41.52030053710938,-0.15421965718269348,0.04966049641370773,0.0070802802219986916
1718308922649070600,41.57007055664062,-0.12153974920511246,-0.332082599401474,-0.08543207496404648
1718308922698841000,41.61984106445313,-0.1031855046749115,-0.3775632679462433,0.2004508078098297
1718308922748611000,41.66961108398438,-0.034023746848106384,-0.3528778851032257,0.25591379404067993
1718308922798381000,41.71938110351562,-0.007772169075906277,-0.21231332421302795,0.1712108999490738
1718308922848151000,41.769151123046875,0.09374859929084778,0.055213987827301025,-0.027885694056749344
1718308922897921000,41.81892114257813,0.04372963681817055,-0.08476575464010239,0.054005976766347885
1718308922947691000,41.86869091796875,0.0034788872580975294,-0.25659823417663574,0.04749001935124397
1718308922997461000,41.9184609375,-0.035944417119026184,-0.12634143233299255,-0.001139300293289125
1718308923047231000,41.96823095703125,-0.029153890907764435,0.1382492184638977,-0.04706338420510292
1718308923097002000,42.018001953125,0.007547132205218077,0.03864406421780586,-0.14970692992210388
1718308923146772000,42.06777197265625,-0.014429539442062378,0.05866464599967003,-0.0903855562210083
1718308923196542000,42.1175419921875,-0.04572860524058342,0.015620504505932331,-0.09440000355243683
1718308923246312000,42.16731201171875,-0.03419551998376846,0.015180550515651703,-0.09982699155807495
1718308923296082000,42.21708203125,0.028141623362898827,0.03882090002298355,-0.16246134042739868
1718308923345852000,42.266851806640624,0.02435940131545067,0.19248023629188538,-0.15096980333328247
1718308923395622000,42.316621826171875,0.054555654525756836,0.28719794750213623,-0.09454754739999771
1718308923445392000,42.36639184570313,0.060558684170246124,0.20726902782917023,0.06432119756937027
1718308923495162000,42.416162109375,-0.055028896778821945,0.13617008924484253,0.06731326133012772
1718308923544933000,42.46593310546875,-0.05752268061041832,0.09227347373962402,0.023492276668548584
1718308923594702800,42.51570288085937,0.0762830525636673,-0.09847331047058105,-0.020772390067577362
1718308923644473000,42.56547314453125,0.02978372760117054,-0.1862979680299759,-0.03858547657728195
1718308923694242800,42.615242919921876,-0.08305148035287857,0.07686974853277206,0.11039920896291733
1718308923744012800,42.6650126953125,-0.08743876963853836,0.047811996191740036,0.07005897909402847
1718308923793782800,42.71478271484375,-0.07811424136161804,0.11988752335309982,0.11379554122686386
1718308923843552800,42.764552734375,0.0639645978808403,0.16476312279701233,0.10786015540361404
1718308923893322800,42.81432275390625,0.02419162169098854,-0.04663221538066864,0.1034931018948555
1718308923943092700,42.8640927734375,0.024584438651800156,-0.2331261932849884,-0.01876915991306305
1718308923992862700,42.91386279296875,0.04649053514003754,-0.4346228241920471,-0.09524156153202057
1718308924042633700,42.9636337890625,0.09867331385612488,-0.2425796240568161,-0.16640815138816833
1718308924092403700,43.01340380859375,0.10292105376720428,0.408215194940567,-0.07380817830562592
1718308924142173700,43.06317358398437,0.13446539640426636,0.4174744784832001,-0.19881004095077515
1718308924191943700,43.112943603515625,0.17999213933944702,0.21193036437034607,-0.48574647307395935
1718308924241713700,43.162713623046876,0.3011188209056854,-0.1262759119272232,-0.8754042387008667
1718308924291483600,43.21248364257813,0.814716100692749,-0.5326162576675415,-1.7867439985275269
1718308924341253600,43.26225366210937,1.6804277896881104,-0.4682047665119171,-1.8648735284805298
1718308924391023600,43.312023681640625,0.20154137909412384,0.6252665519714355,-0.08030788600444794
1718308924440793900,43.3617939453125,-0.6675085425376892,0.26761600375175476,0.9896266460418701
1718308924490563600,43.4115634765625,-0.6568921208381653,1.2811986207962036,2.089252471923828
1718308924540334600,43.46133447265625,-0.26984480023384094,-0.21290534734725952,1.7307956218719482
1718308924590104800,43.51110473632812,-0.038659244775772095,-0.7024313807487488,0.04006858915090561
1718308924639874800,43.56087475585937,-0.19247384369373322,1.2611324787139893,0.6176658868789673
1718308924689644500,43.61064453125,0.06351745873689651,-0.8939357995986938,-0.3532845675945282
1718308924739414800,43.66041479492188,-0.31344208121299744,-0.06642536073923111,-0.09914735704660416
1718308924789184500,43.7101845703125,-0.11753275245428085,-0.5745660662651062,0.023989755660295486
1718308924838954800,43.759954833984374,0.011961587704718113,-0.18409501016139984,0.009640110656619072
1718308924888724500,43.80972436523437,-0.09123270958662033,0.2610720694065094,0.16677913069725037
1718308924938494700,43.85949462890625,-0.11495215445756912,-0.09797609597444534,-0.15087392926216125
1718308924988264400,43.90926440429688,-0.016153668984770775,0.03626532852649689,0.09821578115224838
1718308925038035700,43.95903564453125,0.06497021019458771,-0.2270778864622116,-0.052252285182476044
1718308925087805400,44.00880541992188,-0.0705503299832344,0.19463099539279938,0.11917246133089066
1718308925137575700,44.05857568359375,-0.0365939624607563,0.1677946001291275,-0.020193418487906456
1718308925187345400,44.108345458984374,0.01818193309009075,-0.0255181435495615,-0.08505390584468842
1718308925237115600,44.15811572265625,0.02864149771630764,-0.031215444207191467,-0.1573595255613327
1718308925286885400,44.20788549804688,-0.008497081696987152,0.06878332793712616,-0.13716478645801544
1718308925336655600,44.25765551757812,0.06399043649435043,0.199477419257164,-0.07821118086576462
1718308925386425600,44.307425537109374,0.04893079027533531,0.12537123262882233,0.06137840449810028
1718308925436195600,44.357195556640626,0.05031696707010269,0.23433154821395874,0.13346511125564575
1718308925485965600,44.40696557617188,0.06768929958343506,-0.2543494701385498,0.0993657335639
1718308925535736600,44.456736572265626,0.07757095992565155,-0.14278164505958557,0.20350998640060425
1718308925585506600,44.50650659179688,0.04067286103963852,-0.15816539525985718,0.0711631253361702
1718308925635276500,44.55627661132812,-0.026922959834337234,0.3904702663421631,0.1643543243408203
1718308925685046800,44.606046875,0.00336117553524673,0.11781531572341919,0.004032824654132128
1718308925734816500,44.65581640625,0.042159438133239746,-0.10276472568511963,-0.041667286306619644
1718308925784586500,44.70558642578125,-0.017477260902523994,-0.11049854755401611,-0.06795268505811691
1718308925834356500,44.7553564453125,0.0015158712631091475,-0.39090970158576965,-0.10895071923732758
1718308925884126500,44.80512646484375,-0.128624826669693,-0.2668929398059845,0.02226509153842926
1718308925933896400,44.854896484375,-0.15575231611728668,-0.19289781153202057,-0.011651063337922096
1718308925983667500,44.90466748046875,-0.03536651283502579,0.08905397355556488,-0.05566485971212387
1718308926033437400,44.9544375,0.0926966443657875,0.15535177290439606,0.03893781080842018
1718308926083207400,45.00420751953125,0.08742731809616089,0.06803657114505768,-0.018312161788344383
1718308926132977400,45.05397729492187,-0.005910086911171675,0.12155839055776596,0.037511423230171204
1718308926182747400,45.10374731445312,-0.03656493499875069,0.1195082888007164,0.07698159664869308
1718308926232517400,45.153517333984375,0.01025476772338152,-0.09578564763069153,0.05308505520224571
1718308926282287600,45.20328759765625,0.023726368322968483,-0.04477306455373764,0.011255850084125996
1718308926332057600,45.2530576171875,-0.018021611496806145,-0.009036904200911522,-0.09132405370473862
1718308926381827600,45.30282763671875,-0.0022594258189201355,0.053456567227840424,-0.0681803822517395
1718308926431598300,45.35259838867187,0.04622049257159233,-0.0100800646468997,-0.06486661732196808
1718308926481368600,45.40236865234375,0.04068191722035408,-0.0005675196298398077,-0.016404805704951286
1718308926531138300,45.45213818359375,0.024533038958907127,0.10641539096832275,0.06896308809518814
1718308926580908500,45.50190844726563,0.11111453920602798,-0.12595286965370178,0.04165663197636604
1718308926630678500,45.55167846679687,0.06519977748394012,-0.17118613421916962,0.09553717821836472
1718308926680448500,45.601448486328124,-0.004530569538474083,0.056052617728710175,0.141346737742424
1718308926730219000,45.65121899414063,-0.017560085281729698,0.22486694157123566,0.03292359411716461
1718308926779989000,45.70098901367187,0.06432386487722397,0.14152170717716217,-0.012131230905652046
1718308926829759200,45.75075927734375,-0.021853366866707802,-0.000833036785479635,-0.009945575147867203
1718308926879530000,45.80053002929687,-0.07077004015445709,-0.15972654521465302,-0.07296981662511826
1718308926929300000,45.850300048828124,-0.11220723390579224,-0.14689570665359497,-0.05384911596775055
1718308926979070000,45.900070068359376,0.00021252025908324867,-0.13603027164936066,-0.10172396153211594
1718308927028840200,45.94984008789063,-0.07123183459043503,0.09195549041032791,-0.047201335430145264
1718308927078610000,45.99960986328125,0.023478427901864052,0.06905097514390945,0.0824727714061737
1718308927128380200,46.049380126953125,0.0681481584906578,-0.03323278948664665,0.07228245586156845
1718308927178150000,46.09914990234375,-0.0014357101172208786,0.20204471051692963,0.07072796672582626
1718308927227920100,46.14892016601563,-0.014298511669039726,0.17804484069347382,0.17833352088928223
1718308927277689900,46.19868994140625,0.032040491700172424,-0.16907557845115662,0.15867432951927185
1718308927327461000,46.24846118164062,-0.028187695890665054,-0.07140840590000153,0.0942482054233551
1718308927377231000,46.29823120117187,-0.011478490196168423,-0.07151972502470016,-0.11073530465364456
1718308927427001000,46.3480009765625,0.037877075374126434,-0.04096793755888939,-0.15585696697235107
1718308927476771000,46.39777099609375,0.022354574874043465,-0.06298482418060303,-0.0991273820400238
1718308927526541000,46.447541015625,0.0099610211327672,-0.1570253074169159,-0.05395644158124924
1718308927576311000,46.49731103515625,0.004408597014844418,0.07708200067281723,-0.050694070756435394
1718308927626081000,46.5470810546875,0.09444927424192429,-0.04036420211195946,0.045464418828487396
1718308927675852000,46.59685205078125,0.10726466774940491,-0.09665516763925552,0.07733819633722305
1718308927725621800,46.646621826171874,0.072353295981884,-0.38663986325263977,0.005690109916031361
1718308927775391500,46.6963916015625,-0.11041918396949768,0.1310267299413681,0.1545030176639557
1718308927825161700,46.74616162109375,-0.0031153657473623753,-0.0088187912479043,0.04114663600921631
1718308927874931500,46.79593139648438,0.021337779238820076,0.0601126067340374,-0.020068516954779625
1718308927924701700,46.84570166015625,-0.06835242360830307,0.34152883291244507,0.05197451636195183
1718308927974471700,46.8954716796875,0.011407383717596531,-0.2120470106601715,-0.08912508189678192
1718308928024241700,46.94524169921875,-0.010692059062421322,-0.09400292485952377,-0.059604741632938385
1718308928074012400,46.995012451171874,-0.03767760470509529,-0.2251332551240921,-0.09958677738904953
1718308928123782700,47.04478271484375,-0.09292993694543839,0.020175842568278313,-0.024473916739225388
1718308928173552600,47.094552734375,-0.053283460438251495,0.013066267594695091,0.027818581089377403
1718308928223322600,47.14432250976562,-0.02136068232357502,-0.03459259867668152,0.1141582652926445
1718308928273092600,47.194092529296874,0.03675588220357895,0.12455204874277115,0.07006590068340302
1718308928322862600,47.243862548828126,0.06336246430873871,0.21806655824184418,-0.04704367369413376
1718308928372632600,47.29363256835938,0.02845134772360325,0.2790990173816681,0.0026786073576658964
1718308928422403600,47.343403564453126,0.006100236903876066,-0.04091227799654007,0.13296177983283997
1718308928472173600,47.39317358398438,-0.031605064868927,-0.03407647833228111,0.12366015464067459
1718308928521943600,47.44294360351562,-0.03762354329228401,0.07650436460971832,-0.02008902281522751
1718308928571713800,47.4927138671875,0.038228876888751984,-0.053822483867406845,-0.1470499038696289
1718308928621483500,47.5424833984375,0.08137635141611099,-0.008961803279817104,-0.13412664830684662
1718308928671253800,47.59225366210938,0.011835620738565922,-0.14117737114429474,-0.10859411954879761
1718308928721023700,47.64202368164062,0.004363056737929583,0.11278647184371948,-0.12859340012073517
1718308928770794000,47.6917939453125,0.050098054111003876,0.023126624524593353,-0.054608915001153946
1718308928820564700,47.74156469726562,0.03844752535223961,-0.15678109228610992,-0.01757020503282547
1718308928870335000,47.7913349609375,0.03055870719254017,0.003990480676293373,0.06759662181138992
1718308928920104700,47.84110473632813,-0.014860705472528934,-0.032399751245975494,0.12285774201154709
1718308928969875000,47.890875,-0.07922611385583878,0.10419910401105881,0.08197502791881561
1718308929019644700,47.94064477539062,-0.030193587765097618,0.13069729506969452,0.05145014077425003
1718308929069415000,47.990414794921875,0.026091521605849266,-0.0869695171713829,-0.06549379229545593
1718308929119185000,48.04018481445313,-0.02058783359825611,-0.23628497123718262,-0.06506821513175964
1718308929168956000,48.089955810546876,-0.06353157013654709,-0.16671042144298553,-0.0679771900177002
1718308929218726000,48.13972583007813,-0.02004667930305004,-0.14432601630687714,-0.0811997801065445
1718308929268496000,48.18949584960937,-0.01019591186195612,0.07474268227815628,-0.09205695241689682
1718308929318265900,48.239265869140624,-0.0496024414896965,0.27023574709892273,0.023328492417931557
1718308929368035800,48.289035888671876,-0.006772951222956181,0.16603690385818481,0.0032415995374321938
1718308929417805800,48.33880590820313,-0.05998850241303444,0.2293756604194641,0.08787339925765991
1718308929467575800,48.38857592773437,-0.03003592975437641,0.19934825599193573,0.0957651436328888
1718308929517345800,48.438345703125,0.012055064551532269,0.003209375310689211,0.02285631373524666
1718308929567116800,48.48811669921875,0.04366545379161835,-0.0602436326444149,0.019600866362452507
1718308929616886800,48.53788671875,0.03074299916625023,-0.10476475954055786,0.011110974475741386
1718308929666657000,48.587656982421876,-0.0611959807574749,0.009302421472966671,-0.04644153267145157
1718308929716426500,48.637426513671876,0.014006895944476128,0.023635555058717728,-0.12002786993980408
1718308929766196500,48.68719653320313,0.03550020232796669,-0.0010335728293284774,-0.08959939330816269
1718308929815966500,48.73696655273437,-0.0017891116440296173,-0.055335428565740585,-0.053699180483818054
1718308929865736400,48.786736328125,-0.010790063068270683,-0.03789757937192917,-0.0008186557097360492
1718308929915506400,48.83650634765625,0.028014058247208595,0.16012096405029297,-0.03485625237226486
1718308929965277400,48.88627734375,0.013362943194806576,0.004719121381640434,-0.020830446854233742
1718308930015047400,48.93604736328125,0.024510934948921204,-0.01642131805419922,-0.013322729617357254
1718308930064817400,48.9858173828125,-0.007273891940712929,-0.23046676814556122,0.08886036276817322
1718308930114587600,49.03558764648437,-0.0747850239276886,0.03171771392226219,0.036910880357027054
1718308930164357400,49.085357421875,-0.011122426018118858,-0.036733511835336685,0.055393218994140625
1718308930214127600,49.13512768554688,-0.008741559460759163,0.03767387568950653,-0.08903160691261292
1718308930263897300,49.1848974609375,-0.010063819587230682,-0.1942797303199768,-0.08098220080137253
1718308930313667600,49.23466748046875,-0.006393983494490385,-0.02113005332648754,-0.13254445791244507
1718308930363438300,49.28443823242188,-0.03508102148771286,0.002525475574657321,-0.038843270391225815
1718308930413208600,49.33420849609375,-0.031744614243507385,-0.003982490859925747,0.0018522285390645266
1718308930462978300,49.383978271484374,-0.09765598922967911,0.0385252870619297,-0.02093723975121975
1718308930512748500,49.43374853515625,-0.046126481145620346,-0.04047365486621857,-0.02624358795583248
1718308930562518500,49.4835185546875,0.045999981462955475,0.13827770948410034,0.038184668868780136
1718308930612288500,49.53328857421875,0.07814247161149979,0.010058226995170116,0.015615444630384445
1718308930662058500,49.58305859375,0.053396377712488174,-0.003546531544998288,-0.03477635607123375
1718308930711828700,49.63282885742188,0.002132392954081297,0.018003767356276512,0.02279825694859028
1718308930761598500,49.68259838867188,0.021735655143857002,-0.09778355062007904,0.024456873536109924
1718308930811369700,49.73236962890625,0.0007275756215676665,-0.1654518097639084,-0.02654079720377922
1718308930861139500,49.78213940429688,-0.01506763231009245,-0.03118108958005905,-0.08625233173370361
1718308930910909700,49.83190966796875,-0.026210831478238106,0.07190481573343277,-0.07226327806711197
1718308930960679400,49.881679443359374,-0.0073529877699911594,0.16974802315235138,-0.034821365028619766
1718308931010449700,49.93144970703125,0.03152570128440857,0.10908174514770508,0.06455795466899872
1718308931060219600,49.9812197265625,-0.023241672664880753,0.2240794450044632,0.17136429250240326
1718308931109989600,50.03098974609375,-0.0026106967125087976,0.2590741813182831,-0.0012295814231038094
1718308931159759600,50.080759521484374,0.06749648600816727,-0.2464369386434555,0.13501614332199097
1718308931209529600,50.130529541015626,0.006133526097983122,-0.044614605605602264,0.14217951893806458
1718308931259300600,50.180300537109375,-0.051351338624954224,0.020506341010332108,0.11643712967634201
1718308931309070600,50.23007055664063,-0.0540805459022522,0.16597245633602142,-0.013943245634436607
1718308931358840600,50.27984057617188,-0.006223807577043772,-0.045453768223524094,-0.05847476050257683
1718308931408610600,50.32961059570312,0.055507466197013855,-0.25840598344802856,-0.12887009978294373
1718308931458380800,50.379380859375,-0.03887336328625679,-0.04439356178045273,-0.08874398469924927
1718308931508150500,50.42915063476563,-0.0264209546148777,-0.06516968458890915,-0.06782698631286621
1718308931557920800,50.47892065429688,-0.10751181095838547,0.06441547721624374,-0.003169428091496229
1718308931607690500,50.5286904296875,-0.06944645196199417,-0.22528105974197388,-0.09883709996938705
1718308931657460700,50.578460693359375,0.038359105587005615,-0.024478178471326828,0.07930121570825577
1718308931707230200,50.628230224609375,0.08191084861755371,-0.06770315021276474,0.014100372791290283
1718308931757000400,50.67800048828125,-0.02202327735722065,0.040049150586128235,0.022365227341651917
1718308931806771200,50.727771240234375,0.006708236411213875,0.02575862593948841,-0.015358982607722282
1718308931856541400,50.77754150390625,0.019535351544618607,-0.11096273362636566,0.05089860036969185
1718308931906311200,50.82731127929687,0.0310995951294899,-0.08719296008348465,0.020085560157895088
1718308931956081400,50.877081298828124,-0.03552284091711044,0.09583251923322678,-0.04385453835129738
1718308932005851400,50.926851318359375,0.00851199496537447,0.0564238615334034,-0.1476762741804123
1718308932055621400,50.97662133789063,0.035600606352090836,0.03357260674238205,-0.0913059413433075
1718308932105391400,51.02639135742187,0.025189775973558426,0.07936406135559082,-0.023069366812705994
1718308932155161300,51.076161376953124,0.0542784184217453,0.1621212661266327,-0.014680408872663975
1718308932204931300,51.125931396484376,0.055215053260326385,-0.009072590619325638,-0.010135192424058914
1718308932254701300,51.17570141601563,0.02652748115360737,0.0687287300825119,0.038610510528087616
1718308932304471300,51.22547119140625,-0.03361734747886658,-0.2556205987930298,0.12446922063827515
1718308932354241300,51.2752412109375,0.006959372665733099,-0.019410183653235435,0.06115283444523811
1718308932404012500,51.32501245117187,-0.04380154237151146,0.09251688420772552,0.03692525997757912
1718308932453782300,51.3747822265625,-0.0035001926589757204,0.11624671518802643,-0.006003297865390778
1718308932503552500,51.424552490234376,-0.029981600120663643,-0.17779476940631866,-0.07497543841600418
1718308932553322200,51.474322265625,-0.04487532749772072,-0.1749960482120514,-0.08444404602050781
1718308932603092500,51.52409252929687,-0.0560385026037693,-0.08289754390716553,-0.1329125165939331
1718308932652862200,51.5738623046875,-0.02268507145345211,-0.03357100859284401,-0.10634854435920715
1718308932702633000,51.62363305664063,-0.13533997535705566,-0.02678207866847515,-0.10194767266511917
1718308932752403000,51.67340283203125,-0.10121104121208191,-0.21273383498191833,-0.11506080627441406
1718308932802173000,51.7231728515625,0.06433131545782089,-0.20338082313537598,0.018615495413541794
1718308932851943000,51.77294287109375,0.0832434892654419,0.015200524590909481,0.0896017849445343
1718308932901713000,51.822712890625,0.02317802421748638,0.05488428846001625,0.03490472212433815
1718308932951483100,51.87248315429687,-0.061292652040719986,0.06839237362146378,0.06422080099582672
1718308933001252900,51.9222529296875,-0.04056793078780174,-0.10290773957967758,0.04692276567220688
1718308933051023000,51.97202319335938,-0.014756308868527412,-0.09055120497941971,-0.012014051899313927
1718308933100794000,52.021794189453125,0.020713267847895622,0.03380084037780762,-0.16154681146144867
1718308933150563800,52.071563720703125,0.007631554268300533,0.1908106952905655,-0.13384994864463806
1718308933200334000,52.121333984375,0.04235145077109337,0.12432408332824707,-0.08400914818048477
1718308933250104000,52.17110400390625,0.08043359220027924,0.1300314962863922,-0.08156383782625198
1718308933299874000,52.2208740234375,0.06215045601129532,0.14292199909687042,-0.024866200983524323
1718308933349644000,52.27064404296875,0.01245187595486641,0.2866986095905304,0.1717323362827301
1718308933399414000,52.3204140625,0.026010561734437943,-0.3712880611419678,0.1444336175918579
1718308933449184000,52.37018408203125,-0.0044043357484042645,-0.011596734635531902,0.20597153902053833
1718308933498954000,52.4199541015625,0.004532699938863516,-0.1993224322795868,-0.0026551715563982725
1718308933548724000,52.469723876953125,0.0003944141499232501,0.30451756715774536,0.03825577720999718
1718308933598494000,52.51949389648438,-0.07324864715337753,0.2183254063129425,0.10565132647752762
1718308933648264000,52.56926391601562,-0.0467536561191082,0.07933051139116287,-0.05423154681921005
1718308933698033700,52.61903369140625,-0.08287011831998825,-0.018984876573085785,-0.07061877846717834
1718308933747803600,52.6688037109375,0.009312009438872337,-0.09397949278354645,-0.04795714095234871
1718308933797573600,52.71857373046875,-0.02251569554209709,0.15667350590229034,-0.01967969536781311
1718308933847343600,52.76834350585938,-0.10066429525613785,0.11279898881912231,-0.0636383667588234
1718308933897113600,52.81811352539062,-0.03265328332781792,0.14798787236213684,-0.08071162551641464
1718308933946883600,52.867883544921874,0.07177512347698212,-0.010979680344462395,0.08727285265922546
1718308933996653600,52.917653564453126,0.056122392416000366,-0.18634271621704102,0.09527085721492767
1718308934046423600,52.96742358398438,0.04173732548952103,-0.15777897834777832,-0.0180535688996315
1718308934096193500,53.01719360351562,-0.015354721806943417,0.07014446705579758,0.034580081701278687
1718308934145963800,53.0669638671875,0.002120941411703825,0.05485792085528374,0.0021963089238852262
1718308934195734500,53.11673461914062,0.027888089418411255,0.01188009511679411,0.02063577063381672
1718308934245504500,53.16650439453125,0.004761998075991869,-0.026508040726184845,-0.013731524348258972
1718308934295274500,53.2162744140625,0.0013667342718690634,0.07184409350156784,-0.04032158851623535
1718308934345044700,53.26604467773438,0.04182654246687889,0.06427992135286331,-0.07528596371412277
1718308934394814500,53.315814453125,0.02352423407137394,0.10817653685808182,-0.04192081838846207
1718308934444584700,53.365584716796874,0.044727522879838943,0.06217176094651222,-0.017783524468541145
1718308934494354400,53.4153544921875,0.09365059435367584,-0.04575603827834129,-0.043899547308683395
1718308934544124700,53.46512475585938,0.10588808357715607,0.06768424063920975,0.05191805958747864
1718308934593894700,53.51489477539062,0.06968267261981964,-0.2150803506374359,0.02997627481818199
1718308934643664600,53.56466455078125,-0.054310377687215805,-0.07209443300962448,0.14344558119773865
1718308934693434600,53.6144345703125,-0.04098019003868103,-0.004253600724041462,0.136638805270195
1718308934743205000,53.664205078125,0.005121791269630194,-0.08102374523878098,0.023261379450559616
1718308934792975000,53.71397509765625,0.0020333235152065754,0.08146077394485474,0.018756110221147537
1718308934842745000,53.7637451171875,0.015846341848373413,0.00993412360548973,-0.0939432755112648
1718308934892515000,53.81351513671875,-0.0011020160745829344,-0.08190205693244934,-0.13538844883441925
1718308934942285000,53.86328515625,-0.0017369136912748218,-0.022472552955150604,-0.1387253850698471
1718308934992055300,53.91305517578125,-0.14867761731147766,0.11200962215662003,-0.07654990255832672
1718308935041825000,53.962824951171875,-0.07467290759086609,0.006701578386127949,-0.10133274644613266
1718308935091595300,54.01259521484375,0.08512448519468307,-0.17512467503547668,-0.04213786497712135
1718308935141365000,54.06236499023437,0.10427048057317734,-0.1232132762670517,0.09338667243719101
1718308935191135200,54.11213525390625,0.019578227773308754,-0.038851525634527206,0.10037347674369812
1718308935240905000,54.161905029296875,-0.06795641034841537,-0.015115302987396717,0.041911497712135315
1718308935290675200,54.21167529296875,-0.012679309584200382,-0.03061862848699093,-0.05927131325006485
1718308935340445000,54.26144482421875,0.017781659960746765,0.03924061357975006,-0.04103611782193184
1718308935390215200,54.31121508789062,0.031019434332847595,0.027480093762278557,-0.038431279361248016
1718308935439985200,54.360985107421875,-0.04406306520104408,0.13529497385025024,-0.047632500529289246
1718308935489755100,54.41075512695313,-0.07635735720396042,0.16145068407058716,-0.017975805327296257
1718308935539525000,54.46052514648437,0.03245114907622337,-0.04451100900769234,-0.06612922251224518
1718308935589295000,54.510295166015624,0.030000509694218636,0.054844073951244354,-0.035764921456575394
1718308935639065000,54.560065185546875,0.016149409115314484,0.09982512891292572,-0.021867215633392334
1718308935688835000,54.6098349609375,0.08241711556911469,0.02184910513460636,-0.041857700794935226
1718308935738605300,54.65960522460937,0.04228593781590462,-0.17759822309017181,0.05686993896961212
1718308935788375000,54.709375,-0.028477180749177933,-0.1406031847000122,0.17539259791374207
1718308935838145300,54.759145263671876,-0.05534953996539116,-0.12335708737373352,0.12141591310501099
1718308935887915000,54.8089150390625,-0.033192574977874756,0.10515011847019196,-0.0041366880759596825
1718308935937685200,54.85868530273437,-0.001797101111151278,-0.011484881862998009,-0.02021552249789238
1718308935987455200,54.908455322265624,-0.0041425470262765884,-0.21703751385211945,-0.05494900420308113
1718308936037225200,54.95822509765625,-0.026211896911263466,-0.2538714110851288,-0.1371927410364151
1718308936086995200,55.0079951171875,-0.11375053226947784,-0.08686592429876328,-0.07424706965684891
1718308936136765200,55.05776513671875,-0.07533656805753708,-0.0016421051695942879,-0.15736432373523712
1718308936186535200,55.10753515625,-0.08954266458749771,-0.14503255486488342,-0.1600048542022705
1718308936236305200,55.15730517578125,0.03810237720608711,-0.20306390523910522,-0.10203928500413895
1718308936286075100,55.2070751953125,0.05955440551042557,-0.2575684189796448,-0.0111621068790555
1718308936335844400,55.25684423828125,-0.021619008854031563,0.19055956602096558,0.039625439792871475
1718308936385614000,55.306614013671876,0.002856240142136812,0.2443556785583496,0.11444881558418274
1718308936435384300,55.35638427734375,0.0659361407160759,-0.016089487820863724,0.05718286335468292
1718308936485154000,55.40615405273437,-0.007709851488471031,-0.0727013647556305,0.01924746483564377
1718308936534924300,55.45592431640625,-0.054124489426612854,0.09347562491893768,-0.00509782275184989
1718308936584694300,55.5056943359375,0.01079938467592001,0.14828534424304962,-0.09066279232501984
1718308936634464300,55.55546435546875,0.03140532597899437,0.14124740660190582,-0.08374390006065369
1718308936684234200,55.60523413085937,0.015113705769181252,0.17225512862205505,-0.000675111310556531
1718308936734003500,55.65500341796875,0.034816570580005646,0.16433700919151306,0.0722382441163063
1718308936783773700,55.704773681640624,0.02870914340019226,-0.035460520535707474,0.11861240118741989
1718308936833543400,55.75454345703125,-0.04746738448739052,0.11696949601173401,0.15303748846054077
1718308936883313700,55.80431372070313,-0.036735109984874725,0.09690790623426437,0.1736258566379547
1718308936933083600,55.85408374023437,-0.019685819745063782,0.12815237045288086,0.06816999614238739
1718308936982853600,55.903853515625,-0.031448736786842346,0.16822469234466553,0.03508102148771286
1718308937032623600,55.95362353515625,-0.040589503943920135,0.0032501218374818563,0.15461966395378113
1718308937082393600,56.0033935546875,-0.09985948354005814,0.08762838691473007,0.016411995515227318
1718308937132163800,56.05316381835937,-0.003614708548411727,-0.09557738900184631,-0.009868343360722065
1718308937181933600,56.10293359375,0.025289909914135933,-0.07547931373119354,-0.11942386627197266
1718308937231703800,56.152703857421876,-0.05735144019126892,-0.0013137373607605696,0.052089300006628036
1718308937281473500,56.2024736328125,-0.007324757985770702,-0.16143016517162323,-0.06599792838096619
1718308937331243800,56.25224389648437,-0.1935122013092041,0.06776386499404907,0.025598037987947464
1718308937381013500,56.30201342773437,-0.10371680557727814,0.13452479243278503,-0.11161600798368454
1718308937430783700,56.35178369140625,0.048580318689346313,-0.1966315656900406,-0.05691121891140938
1718308937480552700,56.401552734375,0.04032718390226364,-0.23625248670578003,0.026487799361348152
1718308937530322400,56.451322509765625,-0.04881467670202255,-0.1218758374452591,0.1142972782254219
1718308937580092700,56.5010927734375,0.0038448055274784565,-0.22848643362522125,0.10735921561717987
1718308937629862700,56.55086254882813,-0.03814179450273514,-0.5125900506973267,0.05259157344698906
1718308937679632600,56.60063256835937,-0.06648554652929306,-0.5314362049102783,-0.12499945610761642
1718308937729403100,56.65040307617188,-0.08569919317960739,-0.27929022908210754,-0.11425333470106125
1718308937779172900,56.7001728515625,0.04386945441365242,-0.273954838514328,-0.20880673825740814
1718308937828943000,56.74994311523437,0.017963554710149765,-0.004077033139765263,-0.21982769668102264
1718308937878712800,56.799712890625,-0.10359510034322739,0.20156294107437134,-0.06799715757369995
1718308937928483000,56.84948315429688,-0.18883170187473297,0.2740640342235565,0.09722988307476044
1718308937978252800,56.89925268554688,-0.2421678900718689,0.04514244571328163,0.19262723624706268
1718308938028023000,56.94902294921875,-0.2546336054801941,0.3093400001525879,0.27910059690475464
1718308938077792800,56.99879272460937,-0.2333376556634903,0.32520580291748047,0.45068034529685974
1718308938127563000,57.04856298828125,-0.17198880016803741,0.4714657962322235,0.42841365933418274
1718308938177332000,57.09833203125,-0.14046922326087952,0.5974159836769104,0.23966079950332642
1718308938227102000,57.14810205078125,0.15105369687080383,0.5117218494415283,-0.2295738011598587
1718308938276872000,57.19787182617188,0.06257416307926178,0.23344124853610992,0.38359132409095764
1718308938326642000,57.24764184570312,0.2339419275522232,-0.5834221839904785,-0.05415404960513115
1718308938376412000,57.29741186523437,0.2968500554561615,-0.42882511019706726,-0.24075375497341156
1718308938426182100,57.34718212890625,0.0029944581910967827,0.1184651255607605,-0.39035388827323914
1718308938475951900,57.39695190429688,0.13152287900447845,0.1436391919851303,-0.6314868927001953
1718308938525722000,57.44672216796875,1.4141558408737183,-1.1013731956481934,-1.981950044631958
1718308938575491800,57.49649194335937,1.90476655960083,-0.6445826888084412,-3.030937910079956
1718308938625262000,57.546261962890625,2.306817054748535,-0.5958124995231628,-2.6315791606903076
1718308938675031800,57.59603173828125,-0.4787263572216034,2.009380340576172,1.9646005630493164
1718308938724800800,57.64580078125,-0.7946262955665588,0.3929811120033264,1.3586087226867676
1718308938774571000,57.69557104492188,-1.232837200164795,-0.6269701719284058,2.359053134918213
1718308938824340700,57.7453408203125,-0.6917939186096191,-0.3089274764060974,0.9746298789978027
1718308938874111000,57.795111083984374,0.5437405109405518,-0.2419620305299759,-1.1677383184432983
1718308938923880700,57.84488061523437,-0.30915892124176025,1.5568903684616089,1.684194564819336
1718308938973651000,57.89465087890625,0.4404282569885254,-1.5766578912734985,-0.9646919965744019
1718308939023421000,57.9444208984375,-0.2809799909591675,0.41696420311927795,-0.2919633984565735
1718308939073191000,57.99419091796875,-0.516369104385376,-0.02202034741640091,0.5980207920074463
1718308939122961000,58.0439609375,0.03249163180589676,-0.5318503379821777,-0.1525474637746811
1718308939172729900,58.09372973632812,-0.13881486654281616,0.1219237744808197,0.27901458740234375
1718308939222499800,58.143499755859374,-0.40440207719802856,0.5760819315910339,0.331598699092865
1718308939272270000,58.19327001953125,-0.33849895000457764,0.16834667325019836,0.17039597034454346
1718308939322039800,58.24303979492188,-0.04193919524550438,-0.3595757484436035,0.25233370065689087
1718308939371810000,58.29281005859375,0.07730544358491898,-0.47507303953170776,0.14330922067165375
1718308939421579800,58.342579833984374,0.04369661584496498,0.31552228331565857,0.14673937857151031
1718308939471350000,58.39235009765625,-0.024927720427513123,0.2210351824760437,0.03652099147439003
1718308939521119700,58.44211962890625,0.0049257827922701836,0.024089090526103973,-0.0689348578453064
1718308939570889000,58.491888916015625,0.004749747924506664,0.033553965389728546,-0.05786782503128052
1718308939620659000,58.54165893554688,0.023915719240903854,0.0443275161087513,-0.05266853794455528
1718308939670429000,58.59142895507812,0.03211665898561478,0.02123897522687912,-0.06735400855541229
1718308939720199000,58.641198974609374,0.08511542528867722,-0.0939432755112648,-0.04914331063628197
1718308939769969000,58.690968994140626,0.11684486269950867,-0.12749165296554565,-0.18858163058757782
1718308939819739000,58.74073876953125,0.07914115488529205,0.5471355319023132,-0.2021389901638031
1718308939869508900,58.7905087890625,0.12206971645355225,-0.05377907678484917,-0.014493188820779324
1718308939919278800,58.84027880859375,0.014564295299351215,-0.3825300633907318,0.12952309846878052
1718308939969048000,58.89004809570312,-0.1609838306903839,0.32773712277412415,0.28617557883262634
1718308940018817800,58.93981787109375,0.0006639260682277381,-0.42340078949928284,0.1580895036458969
1718308940068588000,58.989588134765626,-0.010453440248966217,-0.2229803502559662,0.06643548607826233
1718308940118358000,59.03935791015625,-0.03303837776184082,0.13383662700653076,0.1384849101305008
1718308940168128000,59.0891279296875,-0.43121105432510376,2.1637392044067383,0.709744930267334
1718308940217898000,59.13889794921875,0.015116634778678417,-0.6764367818832397,-0.5126073956489563
1718308940267668000,59.18866796875,-0.04686044901609421,0.11011318862438202,-0.08739722520112991
1718308940317437000,59.23843701171875,0.03924354165792465,-0.17491641640663147,-0.22944703698158264
1718308940367207200,59.288207275390626,-0.09682241827249527,0.26967063546180725,-0.02780553139746189
1718308940416977000,59.337976806640626,-0.05708752200007439,0.09399387240409851,0.02052471600472927
1718308940466747100,59.3877470703125,-0.03868720680475235,-0.10542549192905426,0.0716954916715622
1718308940516516900,59.43751684570312,0.03688744455575943,0.1619228571653366,0.15080389380455017
1718308940566287000,59.487287109375,0.022546587511897087,-0.09054934233427048,0.1595076322555542
1718308940616056000,59.53705615234375,-0.04969378560781479,0.2249167412519455,0.04218367114663124
1718308940665826000,59.586825927734374,0.04128459095954895,-0.02479456178843975,0.0474625900387764
1718308940715596000,59.636595947265626,0.10373331606388092,-0.28352439403533936,-0.0358155220746994
1718308940765366000,59.68636596679688,-0.021873872727155685,-0.09099941700696945,-0.017228521406650543
1718308940815136000,59.73613598632812,-0.06937028467655182,0.0761384442448616,-0.021754298359155655
1718308940864906000,59.785906005859374,0.027334151789546013,0.2153402715921402,-0.1017007976770401
1718308940914675000,59.83567504882812,0.07842636853456497,0.2356351613998413,-0.05759485438466072
1718308940964445000,59.88544482421875,0.10006801038980484,0.15219458937644958,0.003471164032816887
1718308941014215000,59.93521484375,0.011598066426813602,0.18542924523353577,0.016891632229089737
1718308941063985000,59.98498486328125,0.0011491540353745222,0.08425788581371307,-0.09395259618759155
1718308941113755000,60.0347548828125,0.11188578605651855,0.14040158689022064,-0.04051893204450607
1718308941163524900,60.08452490234375,0.08243202418088913,-0.15574298799037933,0.10765296220779419
1718308941213294000,60.13429418945312,-0.04836247116327286,0.14404559135437012,0.13760553300380707
1718308941263063800,60.18406372070312,-0.027934161946177483,0.018020013347268105,0.27162060141563416
1718308941312834000,60.233833984375,0.03696813806891441,-0.10933847725391388,0.11888324469327927
1718308941362603800,60.283603759765626,-0.03923289105296135,-0.18320390582084656,0.08965425193309784
